"Time (s)","Acceleration x (m/s^2)","Acceleration y (m/s^2)","Acceleration z (m/s^2)","Absolute acceleration (m/s^2)"
7.127888000E-3,1.915361360E-2,7.422025502E-2,9.837775230E0,9.838073846E0
9.111499000E-3,2.154781483E-2,8.619125932E-2,9.761159897E0,9.761564207E0
1.482284600E-2,1.675941236E-2,5.985504389E-2,9.935936928E0,9.936131347E0
1.609991100E-2,2.633621916E-2,5.506663769E-2,9.904812813E0,9.905000898E0
1.790953900E-2,3.112462163E-2,4.548983276E-2,9.844957352E0,9.845111646E0
2.009764900E-2,1.915361360E-2,6.464344263E-2,9.761159897E0,9.761392737E0
2.191092300E-2,2.154781483E-2,8.379705995E-2,9.797073364E0,9.797455423E0
2.406486900E-2,2.154781483E-2,9.337386489E-2,9.825803757E0,9.826271035E0
2.590065400E-2,1.915361360E-2,8.379705995E-2,9.856928825E0,9.857303621E0
2.806260800E-2,2.154781483E-2,7.900865376E-2,9.837775230E0,9.838116088E0
3.001023100E-2,2.633621916E-2,7.422025502E-2,9.828198433E0,9.828513961E0
3.206034500E-2,4.309562966E-2,7.900865376E-2,9.816226959E0,9.816639512E0
3.386973100E-2,3.591302410E-2,8.858546615E-2,9.825803757E0,9.826268702E0
3.605808300E-2,4.070143029E-2,8.619125932E-2,9.811438560E0,9.811901557E0
3.785226900E-2,3.351882473E-2,8.379705995E-2,9.799467087E0,9.799882685E0
4.002530400E-2,1.197100803E-2,9.337386489E-2,9.804255486E0,9.804707421E0
4.185069200E-2,3.351882473E-2,1.173158810E-1,9.811438560E0,9.812197162E0
4.408407600E-2,2.633621916E-2,1.101332754E-1,9.830592155E0,9.831244329E0
4.590319200E-2,2.873042040E-2,9.816227108E-2,9.837775230E0,9.838306905E0
4.814284800E-2,3.591302410E-2,8.140286058E-2,9.840168953E0,9.840571182E0
5.014561500E-2,2.633621916E-2,9.097966552E-2,9.856928825E0,9.857383870E0
5.214058600E-2,1.675941236E-2,8.858546615E-2,9.866505623E0,9.866917526E0
5.393026900E-2,2.394201607E-2,8.619125932E-2,9.859322548E0,9.859728356E0
5.619935800E-2,3.591302410E-2,1.053448766E-1,9.823410034E0,9.824040512E0
5.802180800E-2,4.309562966E-2,1.101332754E-1,9.816226959E0,9.816939354E0
6.028864700E-2,3.112462163E-2,1.101332754E-1,9.818621635E0,9.819288615E0
6.208807700E-2,4.788403399E-3,9.576806426E-2,9.837775230E0,9.838242523E0
6.431690200E-2,4.788403399E-3,8.379705995E-2,9.842563629E0,9.842921501E0
6.613561500E-2,1.915361360E-2,6.703764945E-2,9.837775230E0,9.838022280E0
6.837567400E-2,4.070143029E-2,6.224924326E-2,9.835380554E0,9.835661758E0
7.033184600E-2,2.873042040E-2,5.506663769E-2,9.809044838E0,9.809241480E0
7.243444600E-2,2.873042040E-2,5.027823523E-2,9.804255486E0,9.804426498E0
7.424746200E-2,2.394201607E-2,6.943184882E-2,9.813833237E0,9.814108049E0
7.646270100E-2,4.788403399E-3,6.703764945E-2,9.837775230E0,9.838004801E0
7.832157700E-2,2.394201700E-3,6.943184882E-2,9.816226959E0,9.816472800E0
8.052147300E-2,2.154781483E-2,8.140286058E-2,9.804255486E0,9.804617094E0
8.234930800E-2,2.633621916E-2,9.337386489E-2,9.806650162E0,9.807130042E0
8.461076300E-2,3.112462163E-2,9.337386489E-2,9.828198433E0,9.828691259E0
8.640730800E-2,1.436521020E-2,8.619125932E-2,9.844957352E0,9.845345121E0
8.863901700E-2,9.576806799E-3,7.182604820E-2,9.844957352E0,9.845224017E0
9.058646200E-2,2.154781483E-2,6.943184882E-2,9.816226959E0,9.816496157E0
9.269778900E-2,2.873042040E-2,7.422025502E-2,9.794678688E0,9.795002026E0
9.448953900E-2,3.112462163E-2,8.140286058E-2,9.797073364E0,9.797460981E0
9.666501000E-2,2.394201607E-2,1.053448766E-1,9.806650162E0,9.807245187E0
9.848934600E-2,3.830722719E-2,8.140286058E-2,9.835380554E0,9.835792013E0
1.006627480E-1,3.351882473E-2,7.182604820E-2,9.844957352E0,9.845276418E0
1.026214620E-1,3.351882473E-2,9.576806426E-2,9.825803757E0,9.826327620E0
1.046604860E-1,3.112462163E-2,1.005564705E-1,9.801861763E0,9.802426963E0
1.064601150E-1,2.154781483E-2,9.816227108E-2,9.816226959E0,9.816741407E0
1.086277070E-1,1.915361360E-2,1.005564705E-1,9.825803757E0,9.826336954E0
1.105525770E-1,1.675941236E-2,9.097966552E-2,9.832986832E0,9.833421999E0
1.126254450E-1,2.154781483E-2,9.337386489E-2,9.832986832E0,9.833453769E0
1.144646920E-1,2.154781483E-2,9.337386489E-2,9.832986832E0,9.833453769E0
1.166231820E-1,3.591302410E-2,1.101332754E-1,9.806650162E0,9.807334321E0
1.184487690E-1,2.873042040E-2,1.077390760E-1,9.773131371E0,9.773767438E0
1.206209210E-1,2.394201607E-2,9.576806426E-2,9.797073364E0,9.797570681E0
1.224492310E-1,4.070143029E-2,7.661445439E-2,9.847352028E0,9.847734173E0
1.245881410E-1,2.394201607E-2,8.379705995E-2,9.856928825E0,9.857314088E0
1.264160000E-1,3.351882473E-2,8.379705995E-2,9.835380554E0,9.835794635E0
1.285858800E-1,3.112462163E-2,9.097966552E-2,9.818621635E0,9.819092466E0
1.305010770E-1,3.591302410E-2,8.619125932E-2,9.799467087E0,9.799911931E0
1.325836180E-1,3.830722719E-2,7.422025502E-2,9.830592155E0,9.830946964E0
1.343915380E-1,3.591302410E-2,6.703764945E-2,9.844957352E0,9.845251091E0
1.365508380E-1,3.351882473E-2,7.900865376E-2,9.844957352E0,9.845331439E0
1.383909230E-1,4.070143029E-2,7.661445439E-2,9.823410034E0,9.823793111E0
1.405485770E-1,4.070143029E-2,7.900865376E-2,9.811438560E0,9.811841091E0
1.423978460E-1,3.591302410E-2,8.858546615E-2,9.799467087E0,9.799933281E0
1.445463140E-1,3.351882473E-2,8.140286058E-2,9.797073364E0,9.797468879E0
1.463670770E-1,2.873042040E-2,9.097966552E-2,9.811438560E0,9.811902433E0
1.485440520E-1,0.000000000E0,6.703764945E-2,9.825803757E0,9.826032440E0
1.504503460E-1,1.436521020E-2,5.506663769E-2,9.799467087E0,9.799632334E0
1.525112730E-1,4.788403399E-3,6.943184882E-2,9.813833237E0,9.814080013E0
1.543438850E-1,4.788403399E-3,7.661445439E-2,9.813833237E0,9.814133456E0
1.565090110E-1,2.633621916E-2,7.422025502E-2,9.818621635E0,9.818937471E0
1.583268080E-1,2.394201607E-2,8.140286058E-2,9.840168953E0,9.840534776E0
1.605067490E-1,1.436521020E-2,8.619125932E-2,9.832986832E0,9.833375073E0
1.623569620E-1,-2.394201700E-3,6.464344263E-2,9.816226959E0,9.816440099E0
1.644739700E-1,7.182605099E-3,9.337386489E-2,9.804255486E0,9.804702744E0
1.663593850E-1,9.576806799E-3,9.576806426E-2,9.811438560E0,9.811910612E0
1.684717080E-1,3.112462163E-2,1.029506698E-1,9.825803757E0,9.826392372E0
1.704094620E-1,3.830722719E-2,1.197100878E-1,9.818621635E0,9.819426092E0
1.724694450E-1,3.351882473E-2,1.077390760E-1,9.821015358E0,9.821663499E0
1.743371540E-1,2.154781483E-2,1.029506698E-1,9.818621635E0,9.819184995E0
1.764366660E-1,7.182605099E-3,9.576806426E-2,9.818621635E0,9.819091299E0
1.783233850E-1,1.436521020E-2,1.101332754E-1,9.818621635E0,9.819249794E0
1.804344040E-1,1.436521020E-2,1.173158810E-1,9.823410034E0,9.824121033E0
1.822480380E-1,1.436521020E-2,9.816227108E-2,9.818621635E0,9.819122823E0
1.844321420E-1,9.576806799E-3,9.337386489E-2,9.816226959E0,9.816675716E0
1.862431920E-1,1.436521020E-2,1.005564705E-1,9.811438560E0,9.811964359E0
1.884298800E-1,2.633621916E-2,8.619125932E-2,9.818621635E0,9.819035256E0
1.903643080E-1,1.915361360E-2,6.943184882E-2,9.821015358E0,9.821279464E0
1.923971010E-1,2.394201607E-2,7.422025502E-2,9.823410034E0,9.823719589E0
1.943180770E-1,1.436521020E-2,7.182604820E-2,9.849745750E0,9.850018106E0
1.963948380E-1,2.154781483E-2,7.661445439E-2,9.849745750E0,9.850067281E0
1.981984620E-1,2.154781483E-2,9.097966552E-2,9.816226959E0,9.816672212E0
2.003925760E-1,2.394201607E-2,8.140286058E-2,9.804255486E0,9.804622648E0
2.022043850E-1,-2.394201700E-3,6.703764945E-2,9.809044838E0,9.809274204E0
2.043903140E-1,4.788403399E-3,6.943184882E-2,9.828198433E0,9.828444849E0
2.061932310E-1,2.154781483E-2,6.224924326E-2,9.844957352E0,9.845177730E0
2.083575350E-1,2.873042040E-2,7.182604820E-2,9.844957352E0,9.845261280E0
2.103151540E-1,5.027823523E-2,7.182604820E-2,9.828198433E0,9.828589488E0
2.123552730E-1,5.267243832E-2,6.943184882E-2,9.813833237E0,9.814220191E0
2.141692310E-1,2.633621916E-2,8.379705995E-2,9.811438560E0,9.811831744E0
2.163530110E-1,3.112462163E-2,9.097966552E-2,9.825803757E0,9.826274243E0
2.181647310E-1,2.394201607E-2,1.125274822E-1,9.844957352E0,9.845629533E0
2.203202320E-1,1.675941236E-2,1.053448766E-1,9.847352028E0,9.847929751E0
2.221524230E-1,1.675941236E-2,1.053448766E-1,9.847352028E0,9.847929751E0
2.243179690E-1,7.182605099E-3,1.029506698E-1,9.821015358E0,9.821557570E0
2.262374610E-1,1.197100803E-2,9.816227108E-2,9.804255486E0,9.804754192E0
2.283157070E-1,3.112462163E-2,1.149216816E-1,9.818621635E0,9.819343489E0
2.302993180E-1,2.873042040E-2,1.125274822E-1,9.821015358E0,9.821702018E0
2.323134450E-1,1.675941236E-2,1.125274822E-1,9.828198433E0,9.828856889E0
2.341144610E-1,4.788403399E-3,1.125274822E-1,9.816226959E0,9.816873080E0
2.362806660E-1,3.591302410E-2,8.858546615E-2,9.801861763E0,9.802327843E0
2.381431150E-1,3.351882473E-2,9.337386489E-2,9.816226959E0,9.816728269E0
2.402784040E-1,2.633621916E-2,9.337386489E-2,9.830592155E0,9.831070868E0
2.421022690E-1,3.112462163E-2,8.619125932E-2,9.832986832E0,9.833413838E0
2.442761430E-1,2.873042040E-2,9.576806426E-2,9.844957352E0,9.845465058E0
2.460936150E-1,2.633621916E-2,9.816227108E-2,9.852140427E0,9.852664635E0
2.482433630E-1,2.154781483E-2,7.900865376E-2,9.837775230E0,9.838116088E0
2.501938850E-1,-2.394201700E-3,6.703764945E-2,9.823410034E0,9.823639065E0
2.522411000E-1,-4.788403399E-3,7.900865376E-2,9.823410034E0,9.823728925E0
2.540583080E-1,-2.394201700E-3,9.576806426E-2,9.830592155E0,9.831058915E0
2.562388390E-1,1.436521020E-2,7.422025502E-2,9.825803757E0,9.826094569E0
2.580456150E-1,1.915361360E-2,7.900865376E-2,9.828198433E0,9.828534665E0
2.602365770E-1,1.197100803E-2,6.703764945E-2,9.835380554E0,9.835616300E0
2.620314230E-1,2.154781483E-2,7.422025502E-2,9.828198433E0,9.828502296E0
2.642037970E-1,1.675941236E-2,8.140286058E-2,9.816226959E0,9.816578784E0
2.660293850E-1,1.436521020E-2,8.140286058E-2,9.811438560E0,9.811786759E0
2.682015360E-1,2.633621916E-2,8.379705995E-2,9.811438560E0,9.811831744E0
2.701304230E-1,7.182605099E-3,8.379705995E-2,9.806650162E0,9.807010805E0
2.721992740E-1,1.675941236E-2,7.422025502E-2,9.811438560E0,9.811733596E0
2.739836920E-1,0.000000000E0,6.464344263E-2,9.813833237E0,9.814046137E0
2.761664940E-1,7.182605099E-3,6.703764945E-2,9.816226959E0,9.816458493E0
2.779717310E-1,1.915361360E-2,6.943184882E-2,9.816226959E0,9.816491194E0
2.801642320E-1,2.873042040E-2,8.379705995E-2,9.840168953E0,9.840567687E0
2.819550770E-1,3.112462163E-2,9.097966552E-2,9.847352028E0,9.847821485E0
2.841619700E-1,2.394201607E-2,1.029506698E-1,9.840168953E0,9.840736613E0
2.859565000E-1,1.436521020E-2,1.029506698E-1,9.813833237E0,9.814383730E0
2.881291900E-1,1.675941236E-2,1.029506698E-1,9.804255486E0,9.804810317E0
2.900361150E-1,1.675941236E-2,1.125274822E-1,9.816226959E0,9.816886219E0
2.921269290E-1,1.436521020E-2,1.029506698E-1,9.813833237E0,9.814383730E0
2.939420000E-1,1.675941236E-2,1.005564705E-1,9.821015358E0,9.821544438E0
2.961246670E-1,2.394201607E-2,1.005564705E-1,9.828198433E0,9.828741998E0
2.979171540E-1,1.915361360E-2,9.816227108E-2,9.832986832E0,9.833495448E0
3.001224050E-1,2.633621916E-2,1.221042871E-1,9.844957352E0,9.845749759E0
3.019055770E-1,3.112462163E-2,1.005564705E-1,9.844957352E0,9.845520078E0
3.040896260E-1,3.830722719E-2,8.379705995E-2,9.837775230E0,9.838206690E0
3.058970000E-1,2.394201607E-2,8.619125932E-2,9.818621635E0,9.819029126E0
3.080873630E-1,1.915361360E-2,1.053448766E-1,9.825803757E0,9.826387122E0
3.099936540E-1,2.154781483E-2,9.816227108E-2,9.818621635E0,9.819135958E0
3.120851010E-1,2.394201607E-2,8.619125932E-2,9.821015358E0,9.821422749E0
3.138700380E-1,2.873042040E-2,9.576806426E-2,9.840168953E0,9.840676907E0
3.160523220E-1,2.154781483E-2,8.619125932E-2,9.842563629E0,9.842964596E0
3.179983460E-1,1.197100803E-2,9.337386489E-2,9.842563629E0,9.843013806E0
3.200010770E-1,9.576806799E-3,1.005564705E-1,9.835380554E0,9.835899245E0
3.218558850E-1,2.633621916E-2,8.619125932E-2,9.823410034E0,9.823823453E0
3.239981920E-1,2.873042040E-2,9.097966552E-2,9.830592155E0,9.831055125E0
3.258854610E-1,2.873042040E-2,9.576806426E-2,9.825803757E0,9.826312453E0
3.280455360E-1,2.633621916E-2,9.576806426E-2,9.832986832E0,9.833488453E0
3.299493840E-1,3.351882473E-2,8.858546615E-2,9.828198433E0,9.828654808E0
3.320432730E-1,4.070143029E-2,9.097966552E-2,9.823410034E0,9.823915645E0
3.338366920E-1,4.309562966E-2,1.005564705E-1,9.818621635E0,9.819231113E0
3.360104940E-1,2.873042040E-2,9.097966552E-2,9.821015358E0,9.821478779E0
3.378339230E-1,3.830722719E-2,8.140286058E-2,9.828198433E0,9.828610192E0
3.400082320E-1,4.070143029E-2,7.182604820E-2,9.823410034E0,9.823756933E0
3.418298460E-1,2.394201607E-2,9.337386489E-2,9.813833237E0,9.814306634E0
3.440059700E-1,1.915361360E-2,9.816227108E-2,9.804255486E0,9.804765592E0
3.457919230E-1,2.154781483E-2,8.619125932E-2,9.823410034E0,9.823811783E0
3.479731910E-1,2.154781483E-2,8.379705995E-2,9.830592155E0,9.830972911E0
3.499075770E-1,2.873042040E-2,7.661445439E-2,9.828198433E0,9.828539039E0
3.519709290E-1,2.394201607E-2,7.661445439E-2,9.825803757E0,9.826131612E0
3.537791150E-1,4.788403213E-2,7.182604820E-2,9.830592155E0,9.830971162E0
3.559686670E-1,3.112462163E-2,7.900865376E-2,9.828198433E0,9.828565284E0
3.577735000E-1,2.633621916E-2,8.619125932E-2,9.823410034E0,9.823823453E0
3.599358880E-1,1.436521020E-2,1.029506698E-1,9.809044838E0,9.809595600E0
3.617551540E-1,7.182605099E-3,9.576806426E-2,9.828198433E0,9.828667639E0
3.639336250E-1,1.915361360E-2,8.858546615E-2,9.823410034E0,9.823828121E0
3.657539610E-1,2.394201607E-2,9.337386489E-2,9.821015358E0,9.821488409E0
3.679313630E-1,1.915361360E-2,8.858546615E-2,9.821015358E0,9.821433546E0
3.698216540E-1,2.394201607E-2,8.379705995E-2,9.835380554E0,9.835766661E0
3.719291020E-1,2.154781483E-2,7.182604820E-2,9.844957352E0,9.845242940E0
3.737348840E-1,4.309562966E-2,7.182604820E-2,9.837775230E0,9.838131820E0
3.758963220E-1,5.027823523E-2,7.661445439E-2,9.844957352E0,9.845383839E0
3.777545770E-1,2.394201607E-2,7.422025502E-2,9.821015358E0,9.821324988E0
3.798940600E-1,1.197100803E-2,7.900865376E-2,9.821015358E0,9.821340455E0
3.816810380E-1,4.788403399E-3,6.703764945E-2,9.835380554E0,9.835610180E0
3.838917980E-1,9.576806799E-3,7.182604820E-2,9.830592155E0,9.830859211E0
3.856921540E-1,3.591302410E-2,8.858546615E-2,9.816226959E0,9.816692358E0
3.878590190E-1,3.351882473E-2,8.858546615E-2,9.832986832E0,9.833442984E0
3.897981540E-1,2.873042040E-2,8.140286058E-2,9.842563629E0,9.842942175E0
3.918567560E-1,3.830722719E-2,7.182604820E-2,9.847352028E0,9.847688479E0
3.936607690E-1,1.915361360E-2,8.140286058E-2,9.842563629E0,9.842918880E0
3.958544950E-1,2.873042040E-2,7.661445439E-2,9.835380554E0,9.835720912E0
3.976573840E-1,9.576806799E-3,7.422025502E-2,9.840168953E0,9.840453515E0
3.998217150E-1,1.675941236E-2,7.422025502E-2,9.847352028E0,9.847645987E0
4.017046920E-1,3.112462163E-2,8.619125932E-2,9.825803757E0,9.826231075E0
4.038194530E-1,3.112462163E-2,1.053448766E-1,9.830592155E0,9.831205847E0
4.057322690E-1,2.873042040E-2,9.337386489E-2,9.832986832E0,9.833472131E0
4.078171920E-1,3.830722719E-2,9.097966552E-2,9.830592155E0,9.831087777E0
4.097214230E-1,3.591302410E-2,9.576806426E-2,9.825803757E0,9.826336079E0
4.118149290E-1,2.873042040E-2,8.858546615E-2,9.825803757E0,9.826245076E0
4.136100380E-1,2.394201607E-2,1.029506698E-1,9.832986832E0,9.833554906E0
4.157821500E-1,3.112462163E-2,1.005564705E-1,9.825803757E0,9.826367580E0
4.176202690E-1,3.830722719E-2,9.576806426E-2,9.835380554E0,9.835921391E0
4.197798880E-1,1.436521020E-2,1.005564705E-1,9.828198433E0,9.828723335E0
4.216051920E-1,4.788403399E-3,9.097966552E-2,9.828198433E0,9.828620690E0
4.237776260E-1,0.000000000E0,9.097966552E-2,9.823410034E0,9.823831330E0
4.255792690E-1,9.576806799E-3,7.661445439E-2,9.825803757E0,9.826107111E0
4.277448460E-1,1.197100803E-2,7.182604820E-2,9.813833237E0,9.814103376E0
4.296695000E-1,4.788403399E-3,6.943184882E-2,9.811438560E0,9.811685397E0
4.317425850E-1,1.197100803E-2,8.858546615E-2,9.813833237E0,9.814240342E0
4.335434610E-1,7.182605099E-3,1.005564705E-1,9.809044838E0,9.809562876E0
4.357403230E-1,9.576806799E-3,9.816227108E-2,9.813833237E0,9.814328828E0
4.375200380E-1,-2.394201700E-3,1.029506698E-1,9.809044838E0,9.809585374E0
4.397075430E-1,1.675941236E-2,1.005564705E-1,9.799467087E0,9.799997330E0
4.415661920E-1,2.633621916E-2,9.816227108E-2,9.804255486E0,9.804782254E0
4.437052820E-1,2.633621916E-2,8.858546615E-2,9.813833237E0,9.814268377E0
4.455011540E-1,2.873042040E-2,9.576806426E-2,9.806650162E0,9.807159852E0
4.477030190E-1,2.394201607E-2,7.900865376E-2,9.806650162E0,9.806997654E0
4.496041540E-1,2.633621916E-2,7.422025502E-2,9.806650162E0,9.806966383E0
4.516702400E-1,4.788403399E-3,8.858546615E-2,9.818621635E0,9.819022412E0
4.535065380E-1,2.394201700E-3,7.900865376E-2,9.816226959E0,9.816545208E0
4.556679780E-1,9.576806799E-3,8.858546615E-2,9.813833237E0,9.814237714E0
4.574835770E-1,1.436521020E-2,8.858546615E-2,9.818621635E0,9.819031753E0
4.596657160E-1,7.182605099E-3,8.858546615E-2,9.818621635E0,9.819023872E0
4.614750000E-1,1.915361360E-2,7.900865376E-2,9.809044838E0,9.809381727E0
4.636634540E-1,3.351882473E-2,7.182604820E-2,9.816226959E0,9.816546959E0
4.654836150E-1,2.154781483E-2,7.182604820E-2,9.816226959E0,9.816513383E0
4.676306750E-1,1.197100803E-2,7.182604820E-2,9.825803757E0,9.826073567E0
4.695584230E-1,3.112462163E-2,7.900865376E-2,9.818621635E0,9.818988845E0
4.716284130E-1,3.351882473E-2,6.224924326E-2,9.828198433E0,9.828452722E0
4.734166920E-1,1.915361360E-2,7.422025502E-2,9.832986832E0,9.833285592E0
4.756261500E-1,1.436521020E-2,7.661445439E-2,9.828198433E0,9.828507545E0
4.774252690E-1,2.394201607E-2,6.703764945E-2,9.818621635E0,9.818879676E0
4.795933710E-1,2.873042040E-2,7.182604820E-2,9.823410034E0,9.823714629E0
4.814220000E-1,4.070143029E-2,7.422025502E-2,9.823410034E0,9.823774730E0
4.835911090E-1,4.788403213E-2,7.900865376E-2,9.813833237E0,9.814268085E0
4.854757690E-1,4.070143029E-2,8.858546615E-2,9.830592155E0,9.831075532E0
4.875888470E-1,4.548983276E-2,8.619125932E-2,9.837775230E0,9.838257963E0
4.894901150E-1,5.267243832E-2,8.619125932E-2,9.837775230E0,9.838293795E0
4.915560680E-1,4.309562966E-2,8.379705995E-2,9.837775230E0,9.838226500E0
4.933769230E-1,4.070143029E-2,8.379705995E-2,9.837775230E0,9.838216304E0
4.955538060E-1,4.070143029E-2,8.858546615E-2,9.837775230E0,9.838258254E0
4.973645000E-1,2.873042040E-2,9.097966552E-2,9.835380554E0,9.835843298E0
4.995515440E-1,2.154781483E-2,9.097966552E-2,9.835380554E0,9.835824940E0
5.013489230E-1,1.915361360E-2,8.858546615E-2,9.828198433E0,9.828616316E0
5.035492810E-1,1.915361360E-2,1.125274822E-1,9.828198433E0,9.828861263E0
5.053458840E-1,2.154781483E-2,1.077390760E-1,9.842563629E0,9.843176866E0
5.075165020E-1,2.633621916E-2,1.101332754E-1,9.847352028E0,9.848003092E0
5.094560380E-1,3.591302410E-2,1.053448766E-1,9.835380554E0,9.836010265E0
5.115142400E-1,3.591302410E-2,1.077390760E-1,9.821015358E0,9.821671961E0
5.133486540E-1,2.873042040E-2,1.125274822E-1,9.818621635E0,9.819308463E0
5.155119780E-1,1.915361360E-2,1.149216816E-1,9.818621635E0,9.819312841E0
5.172970380E-1,2.633621916E-2,1.077390760E-1,9.818621635E0,9.819248043E0
5.194791990E-1,1.436521020E-2,1.053448766E-1,9.842563629E0,9.843137848E0
5.212899230E-1,1.436521020E-2,1.053448766E-1,9.842563629E0,9.843137848E0
5.234769370E-1,3.112462163E-2,9.816227108E-2,9.847352028E0,9.847890461E0
5.253311150E-1,7.182605099E-3,1.029506698E-1,9.840168953E0,9.840710109E0
5.274746750E-1,9.576806799E-3,9.816227108E-2,9.832986832E0,9.833481458E0
5.293572690E-1,7.182605099E-3,9.576806426E-2,9.823410034E0,9.823879468E0
5.314418960E-1,2.394201700E-3,1.173158810E-1,9.830592155E0,9.831292432E0
5.332590000E-1,7.182605099E-3,1.029506698E-1,9.830592155E0,9.831133839E0
5.354396330E-1,1.675941236E-2,8.619125932E-2,9.830592155E0,9.830984281E0
5.372397690E-1,2.633621916E-2,9.576806426E-2,9.830592155E0,9.831093899E0
5.394373710E-1,2.394201607E-2,9.097966552E-2,9.830592155E0,9.831042297E0
5.412544230E-1,1.675941236E-2,8.858546615E-2,9.837775230E0,9.838188337E0
5.434045920E-1,-2.394201700E-3,6.464344263E-2,9.835380554E0,9.835593279E0
5.452370000E-1,7.182605099E-3,6.464344263E-2,9.830592155E0,9.830807316E0
5.474023300E-1,-7.182605099E-3,6.703764945E-2,9.821015358E0,9.821246779E0
5.493204230E-1,-4.788403399E-3,6.703764945E-2,9.816226959E0,9.816457033E0
5.514000680E-1,2.394201700E-3,6.943184882E-2,9.811438560E0,9.811684521E0
5.532055770E-1,0.000000000E0,7.900865376E-2,9.818621635E0,9.818939514E0
5.553672890E-1,9.576806799E-3,8.140286058E-2,9.816226959E0,9.816569149E0
5.572023070E-1,2.154781483E-2,1.029506698E-1,9.813833237E0,9.814396871E0
5.593650270E-1,9.576806799E-3,9.097966552E-2,9.816226959E0,9.816653235E0
5.611840000E-1,9.576806799E-3,7.900865376E-2,9.816226959E0,9.816549587E0
5.633627640E-1,9.576806799E-3,5.506663769E-2,9.799467087E0,9.799626484E0
5.652280380E-1,1.675941236E-2,6.703764945E-2,9.799467087E0,9.799710716E0
5.673605020E-1,2.394201607E-2,6.943184882E-2,9.809044838E0,9.809319785E0
5.692829610E-1,2.633621916E-2,7.422025502E-2,9.806650162E0,9.806966383E0
5.713277230E-1,2.154781483E-2,8.619125932E-2,9.825803757E0,9.826205407E0
5.732121920E-1,2.633621916E-2,7.661445439E-2,9.825803757E0,9.826137738E0
5.753254610E-1,1.675941236E-2,8.379705995E-2,9.813833237E0,9.814205298E0
5.771381540E-1,2.394201700E-3,7.422025502E-2,9.799467087E0,9.799748444E0
5.793232000E-1,1.436521020E-2,7.182604820E-2,9.809044838E0,9.809318324E0
5.812297690E-1,1.436521020E-2,7.182604820E-2,9.809044838E0,9.809318324E0
5.832904200E-1,2.394201607E-2,6.703764945E-2,9.794678688E0,9.794937359E0
5.851473070E-1,1.436521020E-2,7.182604820E-2,9.794678688E0,9.794952575E0
5.872881580E-1,9.576806799E-3,7.422025502E-2,9.797073364E0,9.797359178E0
5.892215380E-1,1.915361360E-2,8.140286058E-2,9.816226959E0,9.816583163E0
5.912858960E-1,3.112462163E-2,9.576806426E-2,9.816226959E0,9.816743451E0
5.931136920E-1,3.830722719E-2,1.053448766E-1,9.811438560E0,9.812078863E0
5.952531170E-1,2.394201607E-2,9.337386489E-2,9.813833237E0,9.814306634E0
5.970698070E-1,4.548983276E-2,9.816227108E-2,9.804255486E0,9.804852410E0
5.992508540E-1,4.070143029E-2,1.005564705E-1,9.801861763E0,9.802462049E0
6.010820380E-1,3.591302410E-2,9.337386489E-2,9.816226959E0,9.816736736E0
6.032485930E-1,4.548983276E-2,8.140286058E-2,9.816226959E0,9.816669877E0
6.051274230E-1,4.309562966E-2,8.379705995E-2,9.816226959E0,9.816679219E0
6.072158130E-1,3.591302410E-2,9.337386489E-2,9.811438560E0,9.811948586E0
6.091544610E-1,2.873042040E-2,1.005564705E-1,9.825803757E0,9.826360288E0
6.112135510E-1,3.351882473E-2,9.816227108E-2,9.828198433E0,9.828745789E0
6.130120380E-1,2.394201607E-2,9.816227108E-2,9.830592155E0,9.831111391E0
6.152112900E-1,2.154781483E-2,9.337386489E-2,9.828198433E0,9.828665597E0
6.170201150E-1,3.830722719E-2,9.576806426E-2,9.832986832E0,9.833527800E0
6.191785100E-1,3.112462163E-2,1.077390760E-1,9.837775230E0,9.838414401E0
6.209918840E-1,5.027823523E-2,9.337386489E-2,9.842563629E0,9.843134936E0
6.231762480E-1,3.591302410E-2,9.097966552E-2,9.844957352E0,9.845443225E0
6.249895770E-1,3.830722719E-2,9.097966552E-2,9.842563629E0,9.843058647E0
6.271739860E-1,5.506663769E-2,8.858546615E-2,9.847352028E0,9.847904431E0
6.290682300E-1,3.351882473E-2,7.422025502E-2,9.856928825E0,9.857265241E0
6.311412060E-1,3.351882473E-2,8.619125932E-2,9.852140427E0,9.852574457E0
6.329597690E-1,4.070143029E-2,8.858546615E-2,9.852140427E0,9.852622746E0
6.351389440E-1,2.873042040E-2,8.379705995E-2,9.844957352E0,9.845355892E0
6.369446920E-1,3.112462163E-2,8.379705995E-2,9.830592155E0,9.830998567E0
6.391366830E-1,3.591302410E-2,9.337386489E-2,9.832986832E0,9.833495739E0
6.409435770E-1,4.548983276E-2,9.576806426E-2,9.842563629E0,9.843134645E0
6.431039030E-1,2.633621916E-2,9.576806426E-2,9.852140427E0,9.852641073E0
6.449408460E-1,3.351882473E-2,9.337386489E-2,9.854534149E0,9.855033510E0
6.471016410E-1,1.197100803E-2,8.140286058E-2,9.844957352E0,9.845301163E0
6.490180000E-1,2.394201607E-2,8.619125932E-2,9.842563629E0,9.842970128E0
6.510993800E-1,2.633621916E-2,9.816227108E-2,9.835380554E0,9.835905656E0
6.529498070E-1,3.351882473E-2,7.182604820E-2,9.821015358E0,9.821335202E0
6.550666000E-1,4.788403213E-2,9.097966552E-2,9.823410034E0,9.823948029E0
6.569486530E-1,3.351882473E-2,1.005564705E-1,9.818621635E0,9.819193752E0
6.590643370E-1,2.873042040E-2,1.053448766E-1,9.813833237E0,9.814440676E0
6.608803840E-1,2.633621916E-2,1.005564705E-1,9.811438560E0,9.811989188E0
6.630620760E-1,2.394201607E-2,1.053448766E-1,9.818621635E0,9.819215935E0
6.648684610E-1,2.154781483E-2,1.029506698E-1,9.813833237E0,9.814396871E0
6.670292960E-1,9.576806799E-3,9.097966552E-2,9.809044838E0,9.809471426E0
6.689456150E-1,1.436521020E-2,8.619125932E-2,9.797073364E0,9.797463029E0
6.710270340E-1,2.154781483E-2,8.858546615E-2,9.811438560E0,9.811862123E0
6.728238070E-1,4.788403399E-3,8.379705995E-2,9.806650162E0,9.807009344E0
6.750247730E-1,2.394201700E-3,9.097966552E-2,9.811438560E0,9.811860662E0
6.768907690E-1,2.394201700E-3,7.182604820E-2,9.813833237E0,9.814096368E0
6.789919930E-1,1.436521020E-2,7.900865376E-2,9.816226959E0,9.816555427E0
6.808170000E-1,9.576806799E-3,9.576806426E-2,9.816226959E0,9.816698781E0
6.829897310E-1,1.675941236E-2,9.337386489E-2,9.813833237E0,9.814291740E0
6.848049230E-1,1.436521020E-2,7.661445439E-2,9.821015358E0,9.821324697E0
6.869874690E-1,-9.576806799E-3,7.661445439E-2,9.821015358E0,9.821318860E0
6.888991920E-1,0.000000000E0,8.379705995E-2,9.818621635E0,9.818979212E0
6.909546900E-1,4.788403399E-3,8.619125932E-2,9.821015358E0,9.821394734E0
6.927845770E-1,-9.576806799E-3,9.816227108E-2,9.830592155E0,9.831086902E0
6.949524270E-1,-1.197100803E-2,1.005564705E-1,9.832986832E0,9.833508272E0
6.967615000E-1,-7.182605099E-3,9.097966552E-2,9.832986832E0,9.833410340E0
6.989501660E-1,2.154781483E-2,7.900865376E-2,9.830592155E0,9.830933262E0
7.007606150E-1,2.394201607E-2,7.900865376E-2,9.840168953E0,9.840515261E0
7.029173860E-1,1.675941236E-2,6.943184882E-2,9.830592155E0,9.830851631E0
7.047482300E-1,1.675941236E-2,8.379705995E-2,9.828198433E0,9.828569950E0
7.069151250E-1,2.154781483E-2,7.900865376E-2,9.832986832E0,9.833327855E0
7.088359230E-1,4.070143029E-2,8.619125932E-2,9.837775230E0,9.838236988E0
7.109128630E-1,3.830722719E-2,9.337386489E-2,9.840168953E0,9.840686518E0
7.127182300E-1,4.548983276E-2,8.858546615E-2,9.830592155E0,9.831096523E0
7.148800830E-1,3.830722719E-2,9.097966552E-2,9.818621635E0,9.819117861E0
7.166943070E-1,3.112462163E-2,9.337386489E-2,9.823410034E0,9.823903100E0
7.188778220E-1,2.633621916E-2,6.943184882E-2,9.818621635E0,9.818902444E0
7.206709610E-1,4.309562966E-2,7.182604820E-2,9.813833237E0,9.814190696E0
7.228755590E-1,4.309562966E-2,8.379705995E-2,9.811438560E0,9.811891041E0
7.246918840E-1,3.830722719E-2,8.619125932E-2,9.804255486E0,9.804709175E0
7.268427790E-1,3.351882473E-2,1.077390760E-1,9.813833237E0,9.814481852E0
7.287807690E-1,3.112462163E-2,1.101332754E-1,9.809044838E0,9.809712468E0
7.308405180E-1,3.591302410E-2,1.125274822E-1,9.797073364E0,9.797785397E0
7.326557690E-1,4.309562966E-2,1.197100878E-1,9.801861763E0,9.802687476E0
7.348382560E-1,3.351882473E-2,1.029506698E-1,9.823410034E0,9.824006670E0
7.366548070E-1,3.591302410E-2,8.858546615E-2,9.821015358E0,9.821480530E0
7.388054760E-1,4.070143029E-2,9.816227108E-2,9.809044838E0,9.809620435E0
7.406389230E-1,3.830722719E-2,1.053448766E-1,9.809044838E0,9.809685297E0
7.428032150E-1,3.351882473E-2,1.077390760E-1,9.818621635E0,9.819269934E0
7.446248460E-1,2.394201607E-2,1.077390760E-1,9.832986832E0,9.833606203E0
7.468009530E-1,1.675941236E-2,1.197100878E-1,9.823410034E0,9.824153708E0
7.487845630E-1,2.394201607E-2,9.097966552E-2,9.828198433E0,9.828648684E0
7.507681730E-1,2.154781483E-2,8.140286058E-2,9.828198433E0,9.828559160E0
7.525931530E-1,3.112462163E-2,8.379705995E-2,9.823410034E0,9.823816742E0
7.547659110E-1,1.915361360E-2,8.140286058E-2,9.835380554E0,9.835736065E0
7.565743460E-1,1.915361360E-2,9.337386489E-2,9.823410034E0,9.823872467E0
7.587636490E-1,2.394201607E-2,9.576806426E-2,9.818621635E0,9.819117861E0
7.605583840E-1,1.675941236E-2,8.858546615E-2,9.811438560E0,9.811852776E0
7.627308690E-1,9.576806799E-3,7.182604820E-2,9.811438560E0,9.811706137E0
7.645493460E-1,2.394201700E-3,6.464344263E-2,9.813833237E0,9.814046429E0
7.667286080E-1,1.915361360E-2,6.943184882E-2,9.830592155E0,9.830856004E0
7.686277300E-1,1.915361360E-2,7.422025502E-2,9.835380554E0,9.835679242E0
7.707263460E-1,2.394201607E-2,7.900865376E-2,9.842563629E0,9.842909853E0
7.725143840E-1,1.675941236E-2,7.422025502E-2,9.825803757E0,9.826098360E0
7.746935660E-1,4.788403399E-3,7.900865376E-2,9.832986832E0,9.833305412E0
7.765036530E-1,4.788403399E-3,8.858546615E-2,9.840168953E0,9.840568852E0
7.786913050E-1,1.197100803E-2,7.661445439E-2,9.828198433E0,9.828504338E0
7.804943070E-1,2.633621916E-2,8.619125932E-2,9.823410034E0,9.823823453E0
7.826890420E-1,3.591302410E-2,8.379705995E-2,9.811438560E0,9.811862123E0
7.844887690E-1,2.633621916E-2,6.703764945E-2,9.804255486E0,9.804520043E0
7.866562630E-1,1.675941236E-2,6.943184882E-2,9.804255486E0,9.804515658E0
7.885765380E-1,9.576806799E-3,8.140286058E-2,9.799467087E0,9.799809862E0
7.906540010E-1,1.436521020E-2,8.379705995E-2,9.818621635E0,9.818989720E0
7.924579230E-1,1.915361360E-2,6.943184882E-2,9.816226959E0,9.816491194E0
7.946517390E-1,1.197100803E-2,7.900865376E-2,9.818621635E0,9.818946812E0
7.964391150E-1,1.675941236E-2,8.858546615E-2,9.816226959E0,9.816640972E0
7.986189590E-1,3.591302410E-2,7.900865376E-2,9.809044838E0,9.809428768E0
8.004426150E-1,2.394201607E-2,7.661445439E-2,9.813833237E0,9.814161492E0
8.026166980E-1,2.633621916E-2,7.661445439E-2,9.821015358E0,9.821349502E0
8.044301530E-1,1.197100803E-2,8.379705995E-2,9.818621635E0,9.818986509E0
8.066144360E-1,2.633621916E-2,9.097966552E-2,9.818621635E0,9.819078456E0
8.085047300E-1,2.154781483E-2,9.337386489E-2,9.816226959E0,9.816694693E0
8.105816560E-1,2.154781483E-2,9.576806426E-2,9.828198433E0,9.828688634E0
8.125295000E-1,2.873042040E-2,7.900865376E-2,9.830592155E0,9.830951629E0
8.145793950E-1,3.112462163E-2,8.140286058E-2,9.818621635E0,9.819008401E0
8.164329610E-1,2.873042040E-2,9.097966552E-2,9.811438560E0,9.811902433E0
8.185771320E-1,1.915361360E-2,7.900865376E-2,9.825803757E0,9.826140071E0
8.203620380E-1,2.873042040E-2,7.182604820E-2,9.837775230E0,9.838079381E0
8.225748700E-1,2.394201607E-2,6.703764945E-2,9.828198433E0,9.828456222E0
8.243525760E-1,7.182605099E-3,7.661445439E-2,9.821015358E0,9.821316817E0
8.265420910E-1,2.394201700E-3,7.422025502E-2,9.825803757E0,9.826084360E0
8.284463460E-1,-4.788403399E-3,8.379705995E-2,9.813833237E0,9.814192156E0
8.305398290E-1,1.436521020E-2,8.619125932E-2,9.806650162E0,9.807039446E0
8.323596150E-1,1.436521020E-2,8.858546615E-2,9.789890289E0,9.790301610E0
8.345375670E-1,2.154781483E-2,9.576806426E-2,9.792284966E0,9.792776964E0
8.363215380E-1,9.576806799E-3,1.077390760E-1,9.823410034E0,9.824005503E0
8.385047880E-1,2.154781483E-2,1.053448766E-1,9.821015358E0,9.821603968E0
8.403155380E-1,2.873042040E-2,8.619125932E-2,9.823410034E0,9.823830163E0
8.425025260E-1,3.591302410E-2,1.005564705E-1,9.825803757E0,9.826383913E0
8.443140000E-1,2.394201607E-2,1.125274822E-1,9.816226959E0,9.816901108E0
8.465002630E-1,3.591302410E-2,1.197100878E-1,9.818621635E0,9.819417043E0
8.483925380E-1,4.070143029E-2,1.268926859E-1,9.818621635E0,9.819525914E0
8.504980010E-1,1.436521020E-2,1.436520964E-1,9.816226959E0,9.817288526E0
8.523148840E-1,2.633621916E-2,1.125274822E-1,9.818621635E0,9.819301750E0
8.544652220E-1,3.351882473E-2,1.077390760E-1,9.825803757E0,9.826451582E0
8.562755000E-1,2.633621916E-2,1.173158810E-1,9.832986832E0,9.833721912E0
8.584629600E-1,2.873042040E-2,1.221042871E-1,9.825803757E0,9.826604417E0
8.602662300E-1,2.394201607E-2,1.221042871E-1,9.828198433E0,9.828986067E0
8.624606980E-1,1.197100803E-2,1.244984865E-1,9.830592155E0,9.831387761E0
8.642394610E-1,1.436521020E-2,1.053448766E-1,9.828198433E0,9.828773491E0
8.664279190E-1,7.182605099E-3,1.029506698E-1,9.830592155E0,9.831133839E0
8.683310760E-1,4.788403399E-3,9.337386489E-2,9.818621635E0,9.819066780E0
8.704256570E-1,1.197100803E-2,9.816227108E-2,9.804255486E0,9.804754192E0
8.722246920E-1,1.915361360E-2,8.379705995E-2,9.794678688E0,9.795055866E0
8.744233940E-1,2.154781483E-2,9.337386489E-2,9.806650162E0,9.807118353E0
8.761999230E-1,3.830722719E-2,9.816227108E-2,9.825803757E0,9.826368746E0
8.783906150E-1,2.633621916E-2,7.661445439E-2,9.835380554E0,9.835714210E0
8.801827690E-1,3.351882473E-2,6.943184882E-2,9.830592155E0,9.830894487E0
8.823883530E-1,5.027823523E-2,6.464344263E-2,9.832986832E0,9.833327855E0
8.841762690E-1,5.027823523E-2,7.182604820E-2,9.832986832E0,9.833377696E0
8.863860910E-1,3.351882473E-2,7.182604820E-2,9.828198433E0,9.828518043E0
8.882805380E-1,2.873042040E-2,7.182604820E-2,9.821015358E0,9.821320027E0
8.903533120E-1,9.576806799E-3,6.943184882E-2,9.813833237E0,9.814083518E0
8.922399990E-1,9.576806799E-3,6.943184882E-2,9.830592155E0,9.830842010E0
8.943510500E-1,1.915361360E-2,6.224924326E-2,9.830592155E0,9.830807899E0
8.962899230E-1,3.591302410E-2,6.703764945E-2,9.811438560E0,9.811733303E0
8.983182710E-1,2.633621916E-2,6.703764945E-2,9.811438560E0,9.811702924E0
9.001428460E-1,2.154781483E-2,7.422025502E-2,9.813833237E0,9.814137545E0
9.023160090E-1,2.394201607E-2,8.619125932E-2,9.806650162E0,9.807058150E0
9.041293070E-1,2.633621916E-2,9.816227108E-2,9.809044838E0,9.809571349E0
9.063137460E-1,3.112462163E-2,9.816227108E-2,9.818621635E0,9.819161644E0
9.082596150E-1,3.112462163E-2,7.900865376E-2,9.828198433E0,9.828565284E0
9.102809680E-1,4.788403213E-2,7.661445439E-2,9.825803757E0,9.826219116E0
9.121533460E-1,3.112462163E-2,1.077390760E-1,9.811438560E0,9.812079447E0
9.142787050E-1,2.394201607E-2,1.005564705E-1,9.813833237E0,9.814377597E0
9.161080380E-1,2.394201607E-2,7.661445439E-2,9.804255486E0,9.804584062E0
9.182764430E-1,1.915361360E-2,9.097966552E-2,9.816226959E0,9.816667249E0
9.200760380E-1,2.154781483E-2,9.816227108E-2,9.813833237E0,9.814347810E0
9.222436640E-1,2.154781483E-2,9.576806426E-2,9.828198433E0,9.828688634E0
9.240538460E-1,3.112462163E-2,8.619125932E-2,9.835380554E0,9.835807456E0
9.262414020E-1,3.591302410E-2,9.816227108E-2,9.823410034E0,9.823966117E0
9.281678070E-1,3.112462163E-2,1.005564705E-1,9.818621635E0,9.819185871E0
9.302391400E-1,2.873042040E-2,1.077390760E-1,9.823410034E0,9.824042846E0
9.320378460E-1,2.154781483E-2,9.816227108E-2,9.832986832E0,9.833500403E0
9.342063610E-1,7.182605099E-3,8.619125932E-2,9.837775230E0,9.838155417E0
9.360099610E-1,-4.788403399E-3,9.097966552E-2,9.844957352E0,9.845378890E0
9.382040990E-1,2.633621916E-2,7.422025502E-2,9.837775230E0,9.838090451E0
9.400216530E-1,3.591302410E-2,6.703764945E-2,9.828198433E0,9.828492673E0
9.422018360E-1,2.873042040E-2,8.140286058E-2,9.818621635E0,9.819001104E0
9.440016920E-1,2.394201607E-2,6.943184882E-2,9.825803757E0,9.826078234E0
9.461690570E-1,1.915361360E-2,8.379705995E-2,9.821015358E0,9.821391524E0
9.481001530E-1,1.197100803E-2,9.337386489E-2,9.825803757E0,9.826254701E0
9.501667950E-1,1.197100803E-2,7.900865376E-2,9.828198433E0,9.828523292E0
9.519770380E-1,1.915361360E-2,8.619125932E-2,9.818621635E0,9.819018618E0
9.541645330E-1,2.873042040E-2,1.029506698E-1,9.816226959E0,9.816808850E0
9.559817690E-1,2.154781483E-2,1.029506698E-1,9.809044838E0,9.809608748E0
9.581317540E-1,2.873042040E-2,9.816227108E-2,9.806650162E0,9.807183523E0
9.599429230E-1,2.394201607E-2,1.029506698E-1,9.813833237E0,9.814402420E0
9.621294920E-1,1.436521020E-2,1.053448766E-1,9.825803757E0,9.826378955E0
9.639798460E-1,1.197100803E-2,1.053448766E-1,9.816226959E0,9.816799507E0
9.661272300E-1,1.915361360E-2,1.005564705E-1,9.816226959E0,9.816760677E0
9.681108400E-1,3.112462163E-2,9.337386489E-2,9.811438560E0,9.811932228E0
9.700944510E-1,3.351882473E-2,9.576806426E-2,9.809044838E0,9.809569596E0
9.719690380E-1,3.112462163E-2,9.337386489E-2,9.811438560E0,9.811932228E0
9.740921880E-1,1.436521020E-2,9.337386489E-2,9.809044838E0,9.809499767E0
9.759164990E-1,3.112462163E-2,9.576806426E-2,9.809044838E0,9.809561708E0
9.780899260E-1,3.112462163E-2,9.576806426E-2,9.809044838E0,9.809561708E0
9.798814990E-1,2.873042040E-2,1.005564705E-1,9.811438560E0,9.811995906E0
9.820571470E-1,3.112462163E-2,8.379705995E-2,9.804255486E0,9.804662988E0
9.838993460E-1,4.070143029E-2,9.337386489E-2,9.813833237E0,9.814361828E0
9.860548850E-1,4.070143029E-2,9.816227108E-2,9.811438560E0,9.812014017E0
9.879830380E-1,2.873042040E-2,9.816227108E-2,9.813833237E0,9.814366208E0
9.900526230E-1,2.154781483E-2,9.816227108E-2,9.821015358E0,9.821529555E0
9.918410380E-1,2.633621916E-2,9.097966552E-2,9.830592155E0,9.831048419E0
9.940198440E-1,1.675941236E-2,9.097966552E-2,9.837775230E0,9.838210186E0
9.958817300E-1,1.915361360E-2,9.576806426E-2,9.823410034E0,9.823895515E0
9.980175820E-1,1.675941236E-2,9.097966552E-2,9.818621635E0,9.819057439E0
9.998410760E-1,3.112462163E-2,9.337386489E-2,9.806650162E0,9.807144070E0
1.002015319E0,3.830722719E-2,9.576806426E-2,9.818621635E0,9.819163395E0
1.003813538E0,3.351882473E-2,8.379705995E-2,9.823410034E0,9.823824620E0
1.005982541E0,3.351882473E-2,7.182604820E-2,9.823410034E0,9.823729800E0
1.007919884E0,9.576806799E-3,7.661445439E-2,9.801861763E0,9.802165858E0
1.009980278E0,1.915361360E-2,8.858546615E-2,9.804255486E0,9.804674389E0
1.011795461E0,1.436521020E-2,7.900865376E-2,9.806650162E0,9.806978950E0
1.013978016E0,1.915361360E-2,6.464344263E-2,9.804255486E0,9.804487302E0
1.015799461E0,1.915361360E-2,6.943184882E-2,9.818621635E0,9.818885806E0
1.017945237E0,3.112462163E-2,6.943184882E-2,9.825803757E0,9.826098360E0
1.019777961E0,3.591302410E-2,5.985504389E-2,9.811438560E0,9.811686858E0
1.021942975E0,2.633621916E-2,6.224924326E-2,9.813833237E0,9.814065995E0
1.023767769E0,1.197100803E-2,6.464344263E-2,9.811438560E0,9.811658815E0
1.025940713E0,7.182605099E-3,8.379705995E-2,9.797073364E0,9.797434360E0
1.027846769E0,4.788403399E-3,8.379705995E-2,9.801861763E0,9.802221121E0
1.029907934E0,7.182605099E-3,8.140286058E-2,9.811438560E0,9.811778872E0
1.031773846E0,4.788403399E-3,8.379705995E-2,9.816226959E0,9.816585791E0
1.033905672E0,4.788403399E-3,8.140286058E-2,9.799467087E0,9.799806352E0
1.035718961E0,9.576806799E-3,9.337386489E-2,9.816226959E0,9.816675716E0
1.037903409E0,2.154781483E-2,1.029506698E-1,9.823410034E0,9.823973119E0
1.039713807E0,1.675941236E-2,1.077390760E-1,9.809044838E0,9.809650820E0
1.041870630E0,1.436521020E-2,1.005564705E-1,9.813833237E0,9.814358907E0
1.043720422E0,9.576806799E-3,1.005564705E-1,9.818621635E0,9.819141212E0
1.045868368E0,2.633621916E-2,1.101332754E-1,9.823410034E0,9.824062685E0
1.047827384E0,1.915361360E-2,1.125274822E-1,9.823410034E0,9.824073188E0
1.049866106E0,2.154781483E-2,8.858546615E-2,9.818621635E0,9.819044888E0
1.051695922E0,2.873042040E-2,8.379705995E-2,9.811438560E0,9.811838462E0
1.053833327E0,2.633621916E-2,9.337386489E-2,9.811438560E0,9.811918207E0
1.055660922E0,3.112462163E-2,1.029506698E-1,9.835380554E0,9.835968596E0
1.057831065E0,3.591302410E-2,1.053448766E-1,9.837775230E0,9.838404788E0
1.059680115E0,3.112462163E-2,1.029506698E-1,9.835380554E0,9.835968596E0
1.061828803E0,3.591302410E-2,9.337386489E-2,9.835380554E0,9.835889338E0
1.063623769E0,2.873042040E-2,1.005564705E-1,9.832986832E0,9.833542956E0
1.065796024E0,2.394201607E-2,1.053448766E-1,9.832986832E0,9.833580263E0
1.067731538E0,2.873042040E-2,8.619125932E-2,9.830592155E0,9.831011977E0
1.069793761E0,4.070143029E-2,8.858546615E-2,9.828198433E0,9.828681927E0
1.071602807E0,2.873042040E-2,8.619125932E-2,9.823410034E0,9.823830163E0
1.073791499E0,1.675941236E-2,8.619125932E-2,9.823410034E0,9.823802447E0
1.075590576E0,1.436521020E-2,7.182604820E-2,9.825803757E0,9.826076776E0
1.077758720E0,1.915361360E-2,6.943184882E-2,9.835380554E0,9.835644274E0
1.079566615E0,4.070143029E-2,7.422025502E-2,9.837775230E0,9.838139394E0
1.081756458E0,3.351882473E-2,6.943184882E-2,9.823410034E0,9.823712587E0
1.083595884E0,1.436521020E-2,6.943184882E-2,9.811438560E0,9.811694745E0
1.085754196E0,7.182605099E-3,8.379705995E-2,9.818621635E0,9.818981839E0
1.087737806E0,7.182605099E-3,8.619125932E-2,9.825803757E0,9.826184406E0
1.089721417E0,1.436521020E-2,7.422025502E-2,9.823410034E0,9.823700917E0
1.091548422E0,2.394201607E-2,7.182604820E-2,9.804255486E0,9.804547813E0
1.093719155E0,2.154781483E-2,8.858546615E-2,9.821015358E0,9.821438507E0
1.095529461E0,1.197100803E-2,8.858546615E-2,9.825803757E0,9.826210366E0
1.097716892E0,1.915361360E-2,8.140286058E-2,9.821015358E0,9.821371388E0
1.099576615E0,9.576806799E-3,6.703764945E-2,9.818621635E0,9.818855156E0
1.101714631E0,1.675941236E-2,8.379705995E-2,9.825803757E0,9.826175364E0
1.103507230E0,2.154781483E-2,8.619125932E-2,9.821015358E0,9.821417204E0
1.105681851E0,1.436521020E-2,7.661445439E-2,9.828198433E0,9.828507545E0
1.107615576E0,2.154781483E-2,8.379705995E-2,9.830592155E0,9.830972911E0
1.109679589E0,2.394201607E-2,9.097966552E-2,9.823410034E0,9.823860505E0
1.111468769E0,1.197100803E-2,9.576806426E-2,9.828198433E0,9.828672304E0
1.113677328E0,1.915361360E-2,8.858546615E-2,9.816226959E0,9.816645352E0
1.115474461E0,2.154781483E-2,9.337386489E-2,9.816226959E0,9.816694693E0
1.117644548E0,3.112462163E-2,1.173158810E-1,9.811438560E0,9.812189276E0
1.119450038E0,3.591302410E-2,9.576806426E-2,9.818621635E0,9.819154347E0
1.121642286E0,2.394201607E-2,8.858546615E-2,9.835380554E0,9.835808622E0
1.123467922E0,2.633621916E-2,8.619125932E-2,9.840168953E0,9.840581667E0
1.125640024E0,1.915361360E-2,9.816227108E-2,9.835380554E0,9.835889047E0
1.127536076E0,9.576806799E-3,1.053448766E-1,9.818621635E0,9.819191417E0
1.129607245E0,1.197100803E-2,9.816227108E-2,9.811438560E0,9.811936902E0
1.131426961E0,2.873042040E-2,9.097966552E-2,9.804255486E0,9.804719698E0
1.133604982E0,2.873042040E-2,9.576806426E-2,9.821015358E0,9.821524302E0
1.135467730E0,2.394201607E-2,1.029506698E-1,9.818621635E0,9.819190541E0
1.137602721E0,1.915361360E-2,8.619125932E-2,9.804255486E0,9.804653049E0
1.139399845E0,1.675941236E-2,8.140286058E-2,9.811438560E0,9.811790557E0
1.141569941E0,2.394201607E-2,5.985504389E-2,9.818621635E0,9.818833264E0
1.143408922E0,2.873042040E-2,5.506663769E-2,9.821015358E0,9.821211760E0
1.145567679E0,3.591302410E-2,5.027823523E-2,9.821015358E0,9.821209717E0
1.147466615E0,4.070143029E-2,7.661445439E-2,9.821015358E0,9.821398528E0
1.149565418E0,3.830722719E-2,7.422025502E-2,9.821015358E0,9.821370513E0
1.151347384E0,3.351882473E-2,8.619125932E-2,9.823410034E0,9.823845334E0
1.153532638E0,1.436521020E-2,7.661445439E-2,9.828198433E0,9.828507545E0
1.155332576E0,2.394201607E-2,6.224924326E-2,9.825803757E0,9.826030107E0
1.157530376E0,3.351882473E-2,5.267243832E-2,9.825803757E0,9.826002105E0
1.159307769E0,2.633621916E-2,7.661445439E-2,9.825803757E0,9.826137738E0
1.161528114E0,2.394201607E-2,8.379705995E-2,9.825803757E0,9.826190240E0
1.163330692E0,2.873042040E-2,8.619125932E-2,9.830592155E0,9.831011977E0
1.165525852E0,3.830722719E-2,9.576806426E-2,9.825803757E0,9.826345121E0
1.167411999E0,1.197100803E-2,1.005564705E-1,9.821015358E0,9.821537434E0
1.169493072E0,1.675941236E-2,1.149216816E-1,9.828198433E0,9.828884591E0
1.171302999E0,4.070143029E-2,1.173158810E-1,9.832986832E0,9.833770877E0
1.173490811E0,4.070143029E-2,1.005564705E-1,9.818621635E0,9.819220897E0
1.175304615E0,3.351882473E-2,9.576806426E-2,9.823410034E0,9.823934025E0
1.177488549E0,2.154781483E-2,1.077390760E-1,9.828198433E0,9.828812566E0
1.179264230E0,2.394201607E-2,1.173158810E-1,9.806650162E0,9.807381079E0
1.181455770E0,1.197100803E-2,1.125274822E-1,9.804255486E0,9.804908534E0
1.183262845E0,9.576806799E-3,1.149216816E-1,9.835380554E0,9.836056596E0
1.185453508E0,1.197100803E-2,1.077390760E-1,9.835380554E0,9.835977921E0
1.187372538E0,1.197100803E-2,1.005564705E-1,9.825803757E0,9.826325578E0
1.189451245E0,3.112462163E-2,8.619125932E-2,9.835380554E0,9.835807456E0
1.191230576E0,2.394201607E-2,9.576806426E-2,9.840168953E0,9.840664092E0
1.193418466E0,3.112462163E-2,9.576806426E-2,9.840168953E0,9.840684188E0
1.195201038E0,2.873042040E-2,8.379705995E-2,9.825803757E0,9.826203074E0
1.197416204E0,1.675941236E-2,8.140286058E-2,9.806650162E0,9.807002330E0
1.199237268E0,7.182605099E-3,8.379705995E-2,9.816226959E0,9.816587251E0
1.201383424E0,1.436521020E-2,8.140286058E-2,9.821015358E0,9.821363217E0
1.203181845E0,1.197100803E-2,9.097966552E-2,9.821015358E0,9.821444052E0
1.205381163E0,1.675941236E-2,8.379705995E-2,9.830592155E0,9.830963582E0
1.207285192E0,1.197100803E-2,7.182604820E-2,9.832986832E0,9.833256445E0
1.209378901E0,4.788403399E-3,6.464344263E-2,9.830592155E0,9.830805859E0
1.211154076E0,3.112462163E-2,6.224924326E-2,9.813833237E0,9.814080013E0
1.213346121E0,3.351882473E-2,7.182604820E-2,9.811438560E0,9.811758717E0
1.215172461E0,1.197100803E-2,8.140286058E-2,9.825803757E0,9.826148238E0
1.217343860E0,-1.436521020E-2,7.900865376E-2,9.813833237E0,9.814161784E0
1.219154268E0,1.197100803E-2,8.140286058E-2,9.818621635E0,9.818966369E0
1.221341597E0,4.788403399E-3,7.422025502E-2,9.809044838E0,9.809326797E0
1.223125499E0,-7.182605099E-3,5.985504389E-2,9.811438560E0,9.811623762E0
1.225308818E0,2.394201700E-3,6.464344263E-2,9.821015358E0,9.821228394E0
1.227263768E0,7.182605099E-3,8.140286058E-2,9.821015358E0,9.821355338E0
1.229306556E0,1.675941236E-2,8.379705995E-2,9.821015358E0,9.821387147E0
1.231108115E0,2.154781483E-2,7.422025502E-2,9.806650162E0,9.806954693E0
1.233304294E0,1.675941236E-2,7.661445439E-2,9.811438560E0,9.811751998E0
1.235092345E0,1.436521020E-2,7.661445439E-2,9.818621635E0,9.818931049E0
1.237271514E0,3.351882473E-2,7.900865376E-2,9.801861763E0,9.802237495E0
1.239076192E0,1.436521020E-2,7.900865376E-2,9.799467087E0,9.799796116E0
1.241269253E0,1.915361360E-2,8.619125932E-2,9.794678688E0,9.795076641E0
1.243066538E0,2.394201607E-2,7.661445439E-2,9.794678688E0,9.795007585E0
1.245266991E0,2.633621916E-2,9.097966552E-2,9.811438560E0,9.811895715E0
1.247167115E0,2.394201607E-2,9.576806426E-2,9.811438560E0,9.811935149E0
1.249234211E0,3.112462163E-2,8.858546615E-2,9.811438560E0,9.811887828E0
1.251040961E0,2.633621916E-2,8.858546615E-2,9.816226959E0,9.816661994E0
1.253231950E0,2.394201607E-2,9.576806426E-2,9.816226959E0,9.816723306E0
1.255031230E0,2.873042040E-2,9.337386489E-2,9.821015358E0,9.821501249E0
1.257229687E0,2.873042040E-2,8.858546615E-2,9.832986832E0,9.833427828E0
1.259034499E0,3.112462163E-2,8.858546615E-2,9.830592155E0,9.831040548E0
1.261196907E0,2.873042040E-2,8.858546615E-2,9.821015358E0,9.821456892E0
1.263017038E0,1.915361360E-2,9.337386489E-2,9.818621635E0,9.819084293E0
1.265194646E0,3.830722719E-2,8.858546615E-2,9.811438560E0,9.811913241E0
1.267178256E0,3.351882473E-2,8.858546615E-2,9.801861763E0,9.802319364E0
1.269192384E0,2.873042040E-2,1.005564705E-1,9.801861763E0,9.802419653E0
1.271017961E0,2.154781483E-2,1.053448766E-1,9.816226959E0,9.816815857E0
1.273190122E0,3.112462163E-2,1.077390760E-1,9.825803757E0,9.826443706E0
1.274971461E0,4.070143029E-2,9.816227108E-2,9.825803757E0,9.826378372E0
1.277157343E0,2.633621916E-2,9.816227108E-2,9.811438560E0,9.811964944E0
1.278955999E0,1.436521020E-2,9.576806426E-2,9.804255486E0,9.804733730E0
1.281155081E0,1.675941236E-2,8.619125932E-2,9.823410034E0,9.823802447E0
1.283003192E0,2.394201607E-2,7.900865376E-2,9.806650162E0,9.806997654E0
1.285152818E0,2.873042040E-2,9.576806426E-2,9.806650162E0,9.807159852E0
1.287032115E0,2.154781483E-2,9.097966552E-2,9.813833237E0,9.814278598E0
1.289120039E0,4.788403399E-3,9.576806426E-2,9.794678688E0,9.795148036E0
1.290925961E0,9.576806799E-3,8.379705995E-2,9.794678688E0,9.795041820E0
1.293117777E0,4.788403399E-3,8.619125932E-2,9.811438560E0,9.811818307E0
1.294986807E0,1.197100803E-2,1.029506698E-1,9.828198433E0,9.828744914E0
1.297115515E0,1.436521020E-2,1.053448766E-1,9.809044838E0,9.809621019E0
1.298904538E0,0.000000000E0,1.125274822E-1,9.804255486E0,9.804901226E0
1.301082736E0,-7.182605099E-3,8.619125932E-2,9.830592155E0,9.830972620E0
1.302877845E0,1.915361360E-2,9.097966552E-2,9.832986832E0,9.833426371E0
1.305080474E0,1.915361360E-2,8.858546615E-2,9.816226959E0,9.816645352E0
1.307002076E0,3.591302410E-2,8.379705995E-2,9.811438560E0,9.811862123E0
1.309078212E0,4.309562966E-2,1.005564705E-1,9.821015358E0,9.821624687E0
1.310880768E0,4.788403213E-2,1.101332754E-1,9.818621635E0,9.819356040E0
1.313075949E0,4.548983276E-2,1.221042871E-1,9.813833237E0,9.814698242E0
1.314878153E0,3.591302410E-2,9.097966552E-2,9.811438560E0,9.811926094E0
1.317043170E0,4.309562966E-2,1.029506698E-1,9.809044838E0,9.809679745E0
1.318905268E0,5.027823523E-2,8.858546615E-2,9.813833237E0,9.814361828E0
1.321040908E0,3.591302410E-2,7.900865376E-2,9.818621635E0,9.819005191E0
1.322861153E0,2.154781483E-2,8.140286058E-2,9.830592155E0,9.830952795E0
1.325038646E0,1.675941236E-2,7.422025502E-2,9.825803757E0,9.826098360E0
1.326919307E0,4.788403399E-3,8.379705995E-2,9.832986832E0,9.833345052E0
1.329005867E0,-7.182605099E-3,6.943184882E-2,9.813833237E0,9.814081474E0
1.330818422E0,1.915361360E-2,5.506663769E-2,9.818621635E0,9.818794733E0
1.333003605E0,2.873042040E-2,5.506663769E-2,9.837775230E0,9.837971298E0
1.334816230E0,3.830722719E-2,5.506663769E-2,9.825803757E0,9.826032732E0
1.337001342E0,2.394201607E-2,7.900865376E-2,9.818621635E0,9.818968704E0
1.338783191E0,1.915361360E-2,8.379705995E-2,9.825803757E0,9.826179740E0
1.340999080E0,2.394201607E-2,6.703764945E-2,9.828198433E0,9.828456222E0
1.342849884E0,2.154781483E-2,7.422025502E-2,9.823410034E0,9.823714046E0
1.344966301E0,1.915361360E-2,7.182604820E-2,9.828198433E0,9.828479551E0
1.346868653E0,2.154781483E-2,8.619125932E-2,9.825803757E0,9.826205407E0
1.348964039E0,2.394201607E-2,6.703764945E-2,9.809044838E0,9.809303130E0
1.350774691E0,2.154781483E-2,7.422025502E-2,9.809044838E0,9.809349295E0
1.352961777E0,1.675941236E-2,8.619125932E-2,9.825803757E0,9.826196074E0
1.354737845E0,9.576806799E-3,8.858546615E-2,9.816226959E0,9.816631337E0
1.356928998E0,1.197100803E-2,9.097966552E-2,9.806650162E0,9.807079484E0
1.358727499E0,9.576806799E-3,9.816227108E-2,9.804255486E0,9.804751561E0
1.360926736E0,1.915361360E-2,9.816227108E-2,9.828198433E0,9.828707297E0
1.362815191E0,3.112462163E-2,1.053448766E-1,9.830592155E0,9.831205847E0
1.364924473E0,4.548983276E-2,1.005564705E-1,9.818621635E0,9.819241913E0
1.366817115E0,2.633621916E-2,1.053448766E-1,9.816226959E0,9.816827535E0
1.368891695E0,4.548983276E-2,1.053448766E-1,9.809044838E0,9.809715975E0
1.370714768E0,4.788403213E-2,9.337386489E-2,9.816226959E0,9.816787829E0
1.372889432E0,5.027823523E-2,1.125274822E-1,9.823410034E0,9.824183174E0
1.374723615E0,2.873042040E-2,1.173158810E-1,9.828198433E0,9.828940578E0
1.376887170E0,2.154781483E-2,9.816227108E-2,9.837775230E0,9.838288552E0
1.378688345E0,1.675941236E-2,1.005564705E-1,9.842563629E0,9.843091551E0
1.380854391E0,1.675941236E-2,1.005564705E-1,9.840168953E0,9.840697003E0
1.382673961E0,2.394201607E-2,9.816227108E-2,9.818621635E0,9.819141504E0
1.384852129E0,2.394201607E-2,8.619125932E-2,9.809044838E0,9.809452726E0
1.386781807E0,1.915361360E-2,9.576806426E-2,9.818621635E0,9.819107353E0
1.388849867E0,2.394201607E-2,9.097966552E-2,9.837775230E0,9.838225043E0
1.390639576E0,2.154781483E-2,7.900865376E-2,9.830592155E0,9.830933262E0
1.392847605E0,1.436521020E-2,6.943184882E-2,9.828198433E0,9.828454180E0
1.394626999E0,2.633621916E-2,6.703764945E-2,9.823410034E0,9.823674076E0
1.396814826E0,1.915361360E-2,6.943184882E-2,9.823410034E0,9.823674076E0
1.398623422E0,3.112462163E-2,7.422025502E-2,9.811438560E0,9.811768649E0
1.400812563E0,4.070143029E-2,7.422025502E-2,9.828198433E0,9.828562951E0
1.402617691E0,2.873042040E-2,6.464344263E-2,9.830592155E0,9.830846675E0
1.404810302E0,2.873042040E-2,6.464344263E-2,9.811438560E0,9.811693576E0
1.406699538E0,4.788403399E-3,6.703764945E-2,9.799467087E0,9.799697555E0
1.408777522E0,1.436521020E-2,7.422025502E-2,9.828198433E0,9.828489174E0
1.410566461E0,1.915361360E-2,7.661445439E-2,9.835380554E0,9.835697600E0
1.412775261E0,3.830722719E-2,7.900865376E-2,9.828198433E0,9.828590654E0
1.414576114E0,2.633621916E-2,6.703764945E-2,9.818621635E0,9.818885806E0
1.416772999E0,2.633621916E-2,6.943184882E-2,9.818621635E0,9.818902444E0
1.418545268E0,1.197100803E-2,8.379705995E-2,9.821015358E0,9.821380143E0
1.420770736E0,2.633621916E-2,8.619125932E-2,9.830592155E0,9.831005272E0
1.422554268E0,2.154781483E-2,9.097966552E-2,9.811438560E0,9.811884031E0
1.424737958E0,1.675941236E-2,9.337386489E-2,9.818621635E0,9.819079915E0
1.426628961E0,1.915361360E-2,1.053448766E-1,9.825803757E0,9.826387122E0
1.428735695E0,2.873042040E-2,1.077390760E-1,9.818621635E0,9.819254756E0
1.430561153E0,3.351882473E-2,1.101332754E-1,9.821015358E0,9.821690054E0
1.432733433E0,3.830722719E-2,1.149216816E-1,9.821015358E0,9.821762423E0
1.434544461E0,4.309562966E-2,1.221042871E-1,9.821015358E0,9.821868934E0
1.436700654E0,4.070143029E-2,1.197100878E-1,9.818621635E0,9.819435724E0
1.438521230E0,5.267243832E-2,1.173158810E-1,9.837775230E0,9.838615700E0
1.440698392E0,6.224924326E-2,1.077390760E-1,9.821015358E0,9.821803569E0
1.442481730E0,5.985504389E-2,1.101332754E-1,9.811438560E0,9.812239224E0
1.444696130E0,3.591302410E-2,1.149216816E-1,9.823410034E0,9.824147873E0
1.446591076E0,2.394201607E-2,1.173158810E-1,9.830592155E0,9.831321293E0
1.448663351E0,2.873042040E-2,1.221042871E-1,9.825803757E0,9.826604417E0
1.450489691E0,3.591302410E-2,1.101332754E-1,9.821015358E0,9.821698516E0
1.452661089E0,4.309562966E-2,7.900865376E-2,9.809044838E0,9.809457693E0
1.454459268E0,3.351882473E-2,8.140286058E-2,9.811438560E0,9.811833497E0
1.456658826E0,2.633621916E-2,7.900865376E-2,9.823410034E0,9.823763060E0
1.458445307E0,1.436521020E-2,9.816227108E-2,9.830592155E0,9.831092733E0
1.460626047E0,3.351882473E-2,9.816227108E-2,9.825803757E0,9.826351246E0
1.462533691E0,2.873042040E-2,8.858546615E-2,9.832986832E0,9.833427828E0
1.464623785E0,3.830722719E-2,8.140286058E-2,9.821015358E0,9.821427418E0
1.466553268E0,3.591302410E-2,8.619125932E-2,9.837775230E0,9.838218343E0
1.468621523E0,3.830722719E-2,8.619125932E-2,9.828198433E0,9.828651017E0
1.470406691E0,3.591302410E-2,8.619125932E-2,9.823410034E0,9.823853795E0
1.472588744E0,3.112462163E-2,6.703764945E-2,9.813833237E0,9.814111554E0
1.474383191E0,2.873042040E-2,6.703764945E-2,9.818621635E0,9.818892519E0
1.476586482E0,2.394201607E-2,6.464344263E-2,9.821015358E0,9.821257285E0
1.478408653E0,3.112462163E-2,6.943184882E-2,9.832986832E0,9.833281220E0
1.480584220E0,1.436521020E-2,7.422025502E-2,9.828198433E0,9.828489174E0
1.482364961E0,7.182605099E-3,7.661445439E-2,9.832986832E0,9.833287924E0
1.484551441E0,1.675941236E-2,7.661445439E-2,9.825803757E0,9.826116736E0
1.486497845E0,2.873042040E-2,7.900865376E-2,9.818621635E0,9.818981547E0
1.488549178E0,1.675941236E-2,8.379705995E-2,9.804255486E0,9.804627910E0
1.490372614E0,4.788403399E-3,8.379705995E-2,9.818621635E0,9.818980380E0
1.492546916E0,2.394201700E-3,8.858546615E-2,9.821015358E0,9.821415162E0
1.494354961E0,1.915361360E-2,1.005564705E-1,9.825803757E0,9.826336954E0
1.496544654E0,1.915361360E-2,1.029506698E-1,9.823410034E0,9.823968160E0
1.498341499E0,3.351882473E-2,9.097966552E-2,9.811438560E0,9.811917623E0
1.500511875E0,4.070143029E-2,1.125274822E-1,9.813833237E0,9.814562743E0
1.502385384E0,3.351882473E-2,1.053448766E-1,9.809044838E0,9.809667766E0
1.504509613E0,1.915361360E-2,1.125274822E-1,9.787496567E0,9.788162153E0
1.506431076E0,1.197100803E-2,1.029506698E-1,9.813833237E0,9.814380518E0
1.508507351E0,1.436521020E-2,1.077390760E-1,9.828198433E0,9.828799444E0
1.510439691E0,2.394201700E-3,1.005564705E-1,9.830592155E0,9.831106726E0
1.512474572E0,-2.394201700E-3,1.005564705E-1,9.821015358E0,9.821530431E0
1.514341114E0,2.394201700E-3,1.005564705E-1,9.813833237E0,9.814348686E0
1.516472309E0,7.182605099E-3,1.005564705E-1,9.811438560E0,9.811956473E0
1.518322961E0,2.873042040E-2,1.029506698E-1,9.823410034E0,9.823991499E0
1.520470047E0,2.633621916E-2,1.053448766E-1,9.816226959E0,9.816827535E0
1.522354191E0,2.633621916E-2,1.149216816E-1,9.804255486E0,9.804964366E0
1.524437268E0,0.000000000E0,9.337386489E-2,9.813833237E0,9.814277430E0
1.526390845E0,1.675941236E-2,8.858546615E-2,9.809044838E0,9.809459154E0
1.528435006E0,3.351882473E-2,8.858546615E-2,9.804255486E0,9.804712975E0
1.530238345E0,3.112462163E-2,6.943184882E-2,9.799467087E0,9.799762482E0
1.532432744E0,3.351882473E-2,8.619125932E-2,9.809044838E0,9.809480775E0
1.534343537E0,2.633621916E-2,8.619125932E-2,9.809044838E0,9.809458862E0
1.536430482E0,2.633621916E-2,8.858546615E-2,9.813833237E0,9.814268377E0
1.538221191E0,2.873042040E-2,8.379705995E-2,9.821015358E0,9.821414870E0
1.540397703E0,3.112462163E-2,7.661445439E-2,9.809044838E0,9.809393414E0
1.542328653E0,4.070143029E-2,7.900865376E-2,9.818621635E0,9.819023872E0
1.544395440E0,3.112462163E-2,6.943184882E-2,9.835380554E0,9.835674871E0
1.546379051E0,2.633621916E-2,7.661445439E-2,9.847352028E0,9.847685278E0
1.548393178E0,2.394201607E-2,9.337386489E-2,9.840168953E0,9.840641083E0
1.550207807E0,2.394201607E-2,8.379705995E-2,9.832986832E0,9.833373033E0
1.552390917E0,2.154781483E-2,8.858546615E-2,9.835380554E0,9.835803086E0
1.554192345E0,2.394201607E-2,1.053448766E-1,9.837775230E0,9.838368373E0
1.556358137E0,1.197100803E-2,8.379705995E-2,9.811438560E0,9.811803702E0
1.558168499E0,2.633621916E-2,8.858546615E-2,9.823410034E0,9.823844750E0
1.560355875E0,2.394201607E-2,9.097966552E-2,9.811438560E0,9.811889581E0
1.562157999E0,2.154781483E-2,9.816227108E-2,9.825803757E0,9.826317703E0
1.564353614E0,3.591302410E-2,1.005564705E-1,9.825803757E0,9.826383913E0
1.566233922E0,3.112462163E-2,1.029506698E-1,9.821015358E0,9.821604260E0
1.568320834E0,2.633621916E-2,9.576806426E-2,9.825803757E0,9.826305744E0
1.570124345E0,2.394201607E-2,6.703764945E-2,9.823410034E0,9.823667949E0
1.572318571E0,1.915361360E-2,7.900865376E-2,9.823410034E0,9.823746430E0
1.574126076E0,2.633621916E-2,8.140286058E-2,9.825803757E0,9.826176239E0
1.576316310E0,1.436521020E-2,7.900865376E-2,9.816226959E0,9.816555427E0
1.578208345E0,1.436521020E-2,8.619125932E-2,9.835380554E0,9.835768701E0
1.580314048E0,1.675941236E-2,7.422025502E-2,9.832986832E0,9.833281220E0
1.582176461E0,0.000000000E0,6.464344263E-2,9.811438560E0,9.811651512E0
1.584281268E0,-7.182605099E-3,1.029506698E-1,9.818621635E0,9.819163979E0
1.586211768E0,1.197100803E-2,1.005564705E-1,9.816226959E0,9.816749290E0
1.588279007E0,2.154781483E-2,9.576806426E-2,9.828198433E0,9.828688634E0
1.590102037E0,3.112462163E-2,8.858546615E-2,9.811438560E0,9.811887828E0
1.592276745E0,2.873042040E-2,1.077390760E-1,9.809044838E0,9.809678577E0
1.594125345E0,2.873042040E-2,1.077390760E-1,9.813833237E0,9.814466666E0
1.596243965E0,2.633621916E-2,9.097966552E-2,9.825803757E0,9.826260243E0
1.598054884E0,1.197100803E-2,8.619125932E-2,9.821015358E0,9.821400862E0
1.600241703E0,7.182605099E-3,7.661445439E-2,9.832986832E0,9.833287924E0
1.602072422E0,0.000000000E0,5.985504389E-2,9.811438560E0,9.811621133E0
1.604239441E0,1.675941236E-2,7.182604820E-2,9.806650162E0,9.806927513E0
1.606147614E0,1.197100803E-2,7.900865376E-2,9.818621635E0,9.818946812E0
1.608237179E0,1.436521020E-2,8.140286058E-2,9.816226959E0,9.816574988E0
1.610025461E0,1.915361360E-2,7.900865376E-2,9.828198433E0,9.828534665E0
1.612204400E0,1.197100803E-2,5.267243832E-2,9.837775230E0,9.837923519E0
1.614026960E0,9.576806799E-3,5.506663769E-2,9.842563629E0,9.842722329E0
1.616202138E0,-2.394201700E-3,6.943184882E-2,9.825803757E0,9.826049358E0
1.618147576E0,4.788403399E-3,7.900865376E-2,9.799467087E0,9.799786757E0
1.620199875E0,7.182605099E-3,7.900865376E-2,9.821015358E0,9.821335786E0
1.622046807E0,1.436521020E-2,6.943184882E-2,9.835380554E0,9.835636115E0
1.624167097E0,1.675941236E-2,8.379705995E-2,9.835380554E0,9.835751800E0
1.626085691E0,1.436521020E-2,8.858546615E-2,9.842563629E0,9.842972749E0
1.628164834E0,2.154781483E-2,9.097966552E-2,9.830592155E0,9.831036758E0
1.629992153E0,3.830722719E-2,9.097966552E-2,9.813833237E0,9.814329704E0
1.632162572E0,1.197100803E-2,1.077390760E-1,9.825803757E0,9.826401706E0
1.633969191E0,1.675941236E-2,1.077390760E-1,9.828198433E0,9.828803235E0
1.636129793E0,2.873042040E-2,1.221042871E-1,9.835380554E0,9.836180434E0
1.637977460E0,2.394201607E-2,1.077390760E-1,9.835380554E0,9.835999775E0
1.640127531E0,2.633621916E-2,1.029506698E-1,9.832986832E0,9.833561027E0
1.642105345E0,2.154781483E-2,9.337386489E-2,9.830592155E0,9.831059206E0
1.644125269E0,2.154781483E-2,1.077390760E-1,9.844957352E0,9.845570439E0
1.646096884E0,3.112462163E-2,1.077390760E-1,9.844957352E0,9.845596056E0
1.648123006E0,3.351882473E-2,1.149216816E-1,9.840168953E0,9.840897090E0
1.649918768E0,1.197100803E-2,1.053448766E-1,9.825803757E0,9.826375747E0
1.652090228E0,9.576806799E-3,9.816227108E-2,9.828198433E0,9.828693300E0
1.653920884E0,1.675941236E-2,9.816227108E-2,9.828198433E0,9.828702923E0
1.656087965E0,3.112462163E-2,1.005564705E-1,9.852140427E0,9.852702742E0
1.657915384E0,1.675941236E-2,1.005564705E-1,9.852140427E0,9.852667835E0
1.660085703E0,1.675941236E-2,1.125274822E-1,9.837775230E0,9.838433046E0
1.661897114E0,2.394201607E-2,9.576806426E-2,9.847352028E0,9.847846805E0
1.664052924E0,2.873042040E-2,9.337386489E-2,9.837775230E0,9.838260293E0
1.665979807E0,3.112462163E-2,8.379705995E-2,9.835380554E0,9.835786767E0
1.668050662E0,7.182605099E-3,7.661445439E-2,9.849745750E0,9.850046330E0
1.669864691E0,2.394201607E-2,7.900865376E-2,9.847352028E0,9.847698084E0
1.672048400E0,1.915361360E-2,8.140286058E-2,9.835380554E0,9.835736065E0
1.673862999E0,2.394201607E-2,9.337386489E-2,9.842563629E0,9.843035644E0
1.676046137E0,1.197100803E-2,1.005564705E-1,9.832986832E0,9.833508272E0
1.677846537E0,9.576806799E-3,8.858546615E-2,9.821015358E0,9.821419539E0
1.680013359E0,7.182605099E-3,7.182604820E-2,9.823410034E0,9.823675243E0
1.681870845E0,-1.675941236E-2,7.182604820E-2,9.813833237E0,9.814110385E0
1.684011096E0,-1.675941236E-2,7.661445439E-2,9.806650162E0,9.806963753E0
1.685981884E0,-2.394201700E-3,1.005564705E-1,9.797073364E0,9.797589695E0
1.688008834E0,-2.394201700E-3,8.140286058E-2,9.811438560E0,9.811776536E0
1.689776037E0,1.675941236E-2,8.619125932E-2,9.792284966E0,9.792678625E0
1.691976055E0,2.394201607E-2,8.858546615E-2,9.799467087E0,9.799896723E0
1.693800114E0,-2.394201700E-3,9.816227108E-2,9.825803757E0,9.826294369E0
1.695973793E0,2.394201607E-2,8.858546615E-2,9.813833237E0,9.814262244E0
1.697771460E0,1.675941236E-2,9.097966552E-2,9.801861763E0,9.802298312E0
1.699971531E0,4.788403399E-3,8.858546615E-2,9.799467087E0,9.799868647E0
1.701779499E0,1.915361360E-2,9.816227108E-2,9.799467087E0,9.799977443E0
1.703938752E0,2.633621916E-2,9.816227108E-2,9.804255486E0,9.804782254E0
1.705952879E0,3.591302410E-2,9.816227108E-2,9.809044838E0,9.809601736E0
1.707936490E0,2.873042040E-2,9.337386489E-2,9.825803757E0,9.826289411E0
1.709743230E0,7.182605099E-3,1.005564705E-1,9.801861763E0,9.802380181E0
1.711934227E0,4.788403399E-3,1.125274822E-1,9.801861763E0,9.802508831E0
1.713726076E0,1.675941236E-2,9.576806426E-2,9.809044838E0,9.809526647E0
1.715901448E0,3.591302410E-2,9.337386489E-2,9.804255486E0,9.804765884E0
1.717729268E0,3.351882473E-2,1.101332754E-1,9.797073364E0,9.797749709E0
1.719899186E0,2.154781483E-2,9.816227108E-2,9.799467087E0,9.799982415E0
1.721755153E0,3.351882473E-2,8.140286058E-2,9.811438560E0,9.811833497E0
1.723896924E0,4.548983276E-2,6.703764945E-2,9.825803757E0,9.826137738E0
1.725774268E0,4.309562966E-2,7.900865376E-2,9.828198433E0,9.828610484E0
1.727894663E0,2.873042040E-2,7.900865376E-2,9.801861763E0,9.802222290E0
1.729661345E0,1.197100803E-2,1.005564705E-1,9.806650162E0,9.807173003E0
1.731861883E0,2.394201607E-2,9.337386489E-2,9.821015358E0,9.821488409E0
1.733656537E0,4.309562966E-2,8.379705995E-2,9.818621635E0,9.819073785E0
1.735859621E0,5.027823523E-2,9.097966552E-2,9.806650162E0,9.807201058E0
1.737627691E0,3.591302410E-2,8.858546615E-2,9.816226959E0,9.816692358E0
1.739857359E0,3.351882473E-2,9.097966552E-2,9.832986832E0,9.833464844E0
1.741637691E0,4.788403213E-2,7.422025502E-2,9.821015358E0,9.821412535E0
1.743824579E0,4.070143029E-2,6.224924326E-2,9.837775230E0,9.838056366E0
1.745735653E0,2.873042040E-2,6.464344263E-2,9.840168953E0,9.840423224E0
1.747822318E0,5.027823523E-2,6.703764945E-2,9.828198433E0,9.828555661E0
1.749600460E0,5.027823523E-2,6.703764945E-2,9.847352028E0,9.847708561E0
1.751820056E0,3.351882473E-2,6.943184882E-2,9.847352028E0,9.847653845E0
1.753675768E0,4.070143029E-2,8.858546615E-2,9.842563629E0,9.843046418E0
1.755787276E0,2.873042040E-2,8.379705995E-2,9.828198433E0,9.828597653E0
1.757610153E0,2.394201607E-2,9.097966552E-2,9.837775230E0,9.838225043E0
1.759785015E0,3.351882473E-2,8.140286058E-2,9.847352028E0,9.847745524E0
1.761585460E0,2.394201607E-2,8.619125932E-2,9.847352028E0,9.847758329E0
1.763782753E0,2.154781483E-2,9.097966552E-2,9.856928825E0,9.857372240E0
1.765671383E0,2.633621916E-2,1.005564705E-1,9.852140427E0,9.852688780E0
1.767749973E0,1.915361360E-2,1.197100878E-1,9.840168953E0,9.840915729E0
1.769554653E0,1.436521020E-2,9.576806426E-2,9.856928825E0,9.857404514E0
1.771747711E0,9.576806799E-3,1.005564705E-1,9.859322548E0,9.859839980E0
1.773550191E0,1.675941236E-2,9.097966552E-2,9.854534149E0,9.854968365E0
1.775745449E0,1.675941236E-2,1.125274822E-1,9.852140427E0,9.852797283E0
1.777533114E0,2.154781483E-2,1.077390760E-1,9.844957352E0,9.845570439E0
1.779743187E0,1.436521020E-2,9.816227108E-2,9.828198433E0,9.828699132E0
1.781519653E0,4.788403399E-3,1.077390760E-1,9.821015358E0,9.821607470E0
1.783710408E0,4.788403399E-3,1.125274822E-1,9.832986832E0,9.833631852E0
1.785710960E0,7.182605099E-3,1.101332754E-1,9.835380554E0,9.835999775E0
1.787708146E0,7.182605099E-3,1.053448766E-1,9.823410034E0,9.823977496E0
1.789548153E0,1.436521020E-2,1.029506698E-1,9.818621635E0,9.819171860E0
1.791705884E0,2.154781483E-2,1.077390760E-1,9.821015358E0,9.821629940E0
1.793489191E0,2.633621916E-2,9.097966552E-2,9.818621635E0,9.819078456E0
1.795703621E0,1.197100803E-2,8.379705995E-2,9.816226959E0,9.816591922E0
1.797482422E0,1.197100803E-2,7.661445439E-2,9.806650162E0,9.806956739E0
1.799670842E0,0.000000000E0,7.661445439E-2,9.799467087E0,9.799766577E0
1.801470768E0,-4.788403399E-3,7.661445439E-2,9.806650162E0,9.806950601E0
1.803668580E0,4.788403399E-3,7.182604820E-2,9.801861763E0,9.802126092E0
1.805544268E0,1.675941236E-2,6.224924326E-2,9.806650162E0,9.806862049E0
1.807666318E0,2.394201607E-2,8.379705995E-2,9.823410034E0,9.823796612E0
1.809443922E0,3.112462163E-2,8.619125932E-2,9.825803757E0,9.826231075E0
1.811633539E0,3.112462163E-2,8.379705995E-2,9.816226959E0,9.816633965E0
1.813428691E0,3.830722719E-2,7.900865376E-2,9.830592155E0,9.830984281E0
1.815631277E0,1.915361360E-2,9.097966552E-2,9.825803757E0,9.826243617E0
1.817421383E0,2.873042040E-2,9.097966552E-2,9.816226959E0,9.816690606E0
1.819629015E0,2.633621916E-2,8.379705995E-2,9.830592155E0,9.830984573E0
1.821415922E0,2.633621916E-2,9.337386489E-2,9.835380554E0,9.835859033E0
1.823596236E0,3.351882473E-2,8.858546615E-2,9.823410034E0,9.823866632E0
1.825498691E0,2.633621916E-2,8.858546615E-2,9.811438560E0,9.811873807E0
1.827593973E0,3.351882473E-2,9.816227108E-2,9.823410034E0,9.823957657E0
1.829476383E0,3.830722719E-2,9.816227108E-2,9.832986832E0,9.833551409E0
1.831591711E0,3.591302410E-2,8.379705995E-2,9.818621635E0,9.819044888E0
1.833377537E0,3.351882473E-2,8.140286058E-2,9.823410034E0,9.823804489E0
1.835589449E0,3.830722719E-2,8.619125932E-2,9.832986832E0,9.833439195E0
1.837386460E0,4.309562966E-2,9.337386489E-2,9.830592155E0,9.831130049E0
1.839556670E0,4.788403213E-2,9.576806426E-2,9.811438560E0,9.812022780E0
1.841350576E0,3.351882473E-2,8.858546615E-2,9.823410034E0,9.823866632E0
1.843554408E0,2.633621916E-2,1.005564705E-1,9.832986832E0,9.833536253E0
1.845463230E0,3.351882473E-2,9.097966552E-2,9.840168953E0,9.840646617E0
1.847552146E0,2.154781483E-2,8.379705995E-2,9.828198433E0,9.828579281E0
1.849324191E0,9.576806799E-3,8.619125932E-2,9.818621635E0,9.819004607E0
1.851519367E0,9.576806799E-3,8.619125932E-2,9.811438560E0,9.811821812E0
1.853328883E0,4.788403399E-3,6.943184882E-2,9.816226959E0,9.816473676E0
1.855517104E0,9.576806799E-3,6.943184882E-2,9.818621635E0,9.818871794E0
1.857309306E0,2.154781483E-2,7.422025502E-2,9.821015358E0,9.821319444E0
1.859514842E0,2.394201607E-2,8.619125932E-2,9.825803757E0,9.826210949E0
1.861312114E0,3.112462163E-2,7.900865376E-2,9.823410034E0,9.823777064E0
1.863482063E0,2.633621916E-2,6.464344263E-2,9.823410034E0,9.823658029E0
1.865395076E0,2.873042040E-2,5.746084079E-2,9.825803757E0,9.826013772E0
1.867479801E0,1.197100803E-2,5.267243832E-2,9.809044838E0,9.809193561E0
1.869303422E0,1.915361360E-2,6.464344263E-2,9.809044838E0,9.809276542E0
1.871477539E0,2.154781483E-2,8.140286058E-2,9.825803757E0,9.826164572E0
1.873313922E0,1.197100803E-2,7.661445439E-2,9.792284966E0,9.792591992E0
1.875475278E0,4.788403399E-3,9.097966552E-2,9.785101891E0,9.785526007E0
1.877253883E0,0.000000000E0,8.858546615E-2,9.804255486E0,9.804655680E0
1.879442498E0,1.197100803E-2,8.379705995E-2,9.813833237E0,9.814198289E0
1.881266806E0,2.873042040E-2,9.337386489E-2,9.818621635E0,9.819107645E0
1.883440235E0,2.873042040E-2,9.576806426E-2,9.821015358E0,9.821524302E0
1.885321345E0,2.394201607E-2,1.029506698E-1,9.806650162E0,9.807219762E0
1.887437974E0,1.675941236E-2,1.053448766E-1,9.787496567E0,9.788077823E0
1.889219653E0,1.197100803E-2,1.005564705E-1,9.787496567E0,9.788020431E0
1.891405194E0,7.182605099E-3,9.576806426E-2,9.780313492E0,9.780784995E0
1.893206845E0,2.394201607E-2,8.858546615E-2,9.770736694E0,9.771167594E0
1.895402932E0,1.197100803E-2,1.005564705E-1,9.780313492E0,9.780837741E0
1.897206806E0,9.576806799E-3,1.173158810E-1,9.813833237E0,9.814539089E0
1.899400671E0,1.675941236E-2,1.388636976E-1,9.811438560E0,9.812435510E0
1.901196922E0,3.351882473E-2,1.388636976E-1,9.794678688E0,9.795720353E0
1.903398408E0,1.915361360E-2,1.388636976E-1,9.785101891E0,9.786105916E0
1.905290691E0,3.112462163E-2,1.364694983E-1,9.816226959E0,9.817224882E0
1.907365629E0,3.830722719E-2,1.460463107E-1,9.837775230E0,9.838933807E0
1.909185037E0,3.830722719E-2,1.532289088E-1,9.847352028E0,9.848618609E0
1.911363367E0,4.548983276E-2,1.484405100E-1,9.840168953E0,9.841393648E0
1.913162691E0,1.915361360E-2,1.340752989E-1,9.809044838E0,9.809979800E0
1.915361105E0,1.675941236E-2,1.244984865E-1,9.813833237E0,9.814637209E0
1.917201076E0,3.830722719E-2,1.173158810E-1,9.837775230E0,9.838549280E0
1.919328325E0,3.591302410E-2,1.149216816E-1,9.844957352E0,9.845693576E0
1.921125614E0,2.873042040E-2,1.077390760E-1,9.849745750E0,9.850376871E0
1.923326064E0,1.436521020E-2,1.053448766E-1,9.840168953E0,9.840743312E0
1.925202576E0,3.351882473E-2,7.900865376E-2,9.830592155E0,9.830966789E0
1.927323802E0,3.112462163E-2,5.985504389E-2,9.835380554E0,9.835611929E0
1.929102037E0,3.351882473E-2,5.985504389E-2,9.844957352E0,9.845196361E0
1.931291022E0,3.351882473E-2,5.027823523E-2,9.847352028E0,9.847537427E0
1.933131345E0,4.309562966E-2,4.548983276E-2,9.842563629E0,9.842763095E0
1.935288761E0,3.830722719E-2,4.070143029E-2,9.849745750E0,9.849904334E0
1.937126153E0,2.633621916E-2,3.351882473E-2,9.828198433E0,9.828290876E0
1.939286498E0,3.830722719E-2,4.309562966E-2,9.835380554E0,9.835549569E0
1.941135499E0,3.830722719E-2,5.027823523E-2,9.830592155E0,9.830795363E0
1.943284236E0,1.675941236E-2,5.027823523E-2,9.852140427E0,9.852282972E0
1.945187268E0,4.788403213E-2,4.548983276E-2,9.856928825E0,9.857150099E0
1.947251457E0,5.506663769E-2,4.309562966E-2,9.844957352E0,9.845205677E0
1.949082960E0,3.830722719E-2,5.506663769E-2,9.825803757E0,9.826032732E0
1.951249195E0,3.351882473E-2,5.506663769E-2,9.825803757E0,9.826015231E0
1.953030922E0,1.197100803E-2,5.746084079E-2,9.832986832E0,9.833162008E0
1.955246933E0,2.394201700E-3,5.746084079E-2,9.840168953E0,9.840337012E0
1.957036576E0,-1.915361360E-2,5.746084079E-2,9.828198433E0,9.828385068E0
1.959214154E0,-9.576806799E-3,6.943184882E-2,9.813833237E0,9.814083518E0
1.961019806E0,-9.576806799E-3,8.379705995E-2,9.801861763E0,9.802224629E0
1.963211892E0,1.197100803E-2,8.379705995E-2,9.813833237E0,9.814198289E0
1.965094653E0,-4.788403399E-3,1.173158810E-1,9.825803757E0,9.826505249E0
1.967209629E0,-2.394201700E-3,1.125274822E-1,9.825803757E0,9.826448373E0
1.968989653E0,-4.788403399E-3,1.197100878E-1,9.830592155E0,9.831322167E0
1.971176851E0,-7.182605099E-3,1.292868853E-1,9.828198433E0,9.829051385E0
1.972987845E0,-4.788403399E-3,1.340752989E-1,9.818621635E0,9.819538173E0
1.975174588E0,0.000000000E0,1.173158810E-1,9.809044838E0,9.809746360E0
1.976996383E0,-9.576806799E-3,1.005564705E-1,9.816226959E0,9.816746662E0
1.979172326E0,0.000000000E0,1.029506698E-1,9.835380554E0,9.835919351E0
1.980991076E0,0.000000000E0,1.077390760E-1,9.828198433E0,9.828788946E0
1.983170064E0,4.788403399E-3,1.197100878E-1,9.811438560E0,9.812169998E0
1.985070383E0,1.197100803E-2,1.101332754E-1,9.804255486E0,9.804881349E0
1.987137285E0,1.436521020E-2,1.125274822E-1,9.823410034E0,9.824065019E0
1.988947268E0,1.915361360E-2,9.097966552E-2,9.840168953E0,9.840608171E0
1.991135023E0,1.436521020E-2,8.379705995E-2,9.847352028E0,9.847719039E0
1.992917922E0,9.576806799E-3,7.661445439E-2,9.828198433E0,9.828501713E0
1.995132760E0,2.394201700E-3,6.703764945E-2,9.825803757E0,9.826032732E0
1.997049383E0,2.873042040E-2,7.422025502E-2,9.835380554E0,9.835702554E0
1.999130498E0,2.873042040E-2,7.182604820E-2,9.830592155E0,9.830896528E0
2.000901460E0,2.633621916E-2,6.224924326E-2,9.835380554E0,9.835612803E0
2.003097719E0,3.830722719E-2,6.464344263E-2,9.842563629E0,9.842850452E0
2.005003768E0,3.591302410E-2,7.182604820E-2,9.849745750E0,9.850073100E0
2.007095457E0,2.873042040E-2,6.464344263E-2,9.849745750E0,9.849999775E0
2.008903729E0,5.746084079E-2,6.464344263E-2,9.837775230E0,9.838155417E0
2.011093195E0,5.506663769E-2,5.746084079E-2,9.844957352E0,9.845279038E0
2.012868537E0,5.267243832E-2,6.464344263E-2,9.849745750E0,9.850098706E0
2.015060416E0,5.506663769E-2,7.661445439E-2,9.842563629E0,9.843015844E0
2.016861806E0,4.070143029E-2,7.661445439E-2,9.816226959E0,9.816610316E0
2.019058154E0,4.309562966E-2,7.182604820E-2,9.837775230E0,9.838131820E0
2.020856845E0,3.112462163E-2,7.422025502E-2,9.844957352E0,9.845286316E0
2.023055891E0,3.591302410E-2,8.619125932E-2,9.828198433E0,9.828641977E0
2.024958883E0,3.830722719E-2,1.029506698E-1,9.823410034E0,9.824024175E0
2.027053630E0,4.309562966E-2,9.816227108E-2,9.821015358E0,9.821600467E0
2.028828383E0,3.351882473E-2,9.816227108E-2,9.816226959E0,9.816774983E0
2.031020850E0,2.394201607E-2,1.053448766E-1,9.825803757E0,9.826397622E0
2.032815845E0,1.915361360E-2,1.125274822E-1,9.832986832E0,9.833649339E0
2.035018588E0,2.633621916E-2,1.244984865E-1,9.835380554E0,9.836203745E0
2.036862845E0,2.633621916E-2,1.221042871E-1,9.818621635E0,9.819416168E0
2.039016327E0,1.675941236E-2,1.197100878E-1,9.813833237E0,9.814577636E0
2.040799960E0,2.394201607E-2,1.316810995E-1,9.806650162E0,9.807563435E0
2.042983547E0,3.112462163E-2,1.268926859E-1,9.809044838E0,9.809914940E0
2.044902691E0,2.633621916E-2,1.244984865E-1,9.818621635E0,9.819446231E0
2.046981285E0,1.436521020E-2,1.197100878E-1,9.823410034E0,9.824149916E0
2.048781191E0,1.675941236E-2,1.197100878E-1,9.813833237E0,9.814577636E0
2.050979023E0,2.873042040E-2,1.244984865E-1,9.804255486E0,9.805088013E0
2.052785037E0,2.873042040E-2,1.101332754E-1,9.809044838E0,9.809705164E0
2.054976761E0,1.197100803E-2,1.053448766E-1,9.799467087E0,9.800040614E0
2.056778345E0,9.576806799E-3,9.097966552E-2,9.813833237E0,9.814259616E0
2.058943981E0,1.915361360E-2,8.858546615E-2,9.823410034E0,9.823828121E0
2.060766691E0,1.915361360E-2,8.619125932E-2,9.823410034E0,9.823806823E0
2.062941720E0,2.394201607E-2,7.182604820E-2,9.818621635E0,9.818913536E0
2.064837614E0,4.070143029E-2,6.943184882E-2,9.813833237E0,9.814163244E0
2.066939458E0,3.112462163E-2,6.464344263E-2,9.818621635E0,9.818883762E0
2.068727499E0,4.788403399E-3,5.027823523E-2,9.830592155E0,9.830721894E0
2.070937195E0,7.182605099E-3,5.985504389E-2,9.837775230E0,9.837959936E0
2.072784806E0,1.915361360E-2,5.506663769E-2,9.830592155E0,9.830765043E0
2.074904417E0,1.675941236E-2,3.830722719E-2,9.818621635E0,9.818710666E0
2.076698383E0,3.351882473E-2,5.985504389E-2,9.823410034E0,9.823649568E0
2.078902154E0,4.070143029E-2,5.985504389E-2,9.823410034E0,9.823676701E0
2.080683460E0,4.548983276E-2,5.506663769E-2,9.823410034E0,9.823669699E0
2.082899892E0,2.154781483E-2,6.224924326E-2,9.825803757E0,9.826024564E0
2.084856537E0,2.394201607E-2,5.985504389E-2,9.835380554E0,9.835591822E0
2.086867113E0,2.154781483E-2,7.661445439E-2,9.821015358E0,9.821337829E0
2.088691076E0,4.070143029E-2,7.661445439E-2,9.811438560E0,9.811822104E0
2.090864851E0,4.070143029E-2,7.182604820E-2,9.809044838E0,9.809392245E0
2.092680576E0,3.830722719E-2,8.379705995E-2,9.809044838E0,9.809477561E0
2.094862589E0,1.915361360E-2,8.379705995E-2,9.823410034E0,9.823786109E0
2.096715537E0,3.351882473E-2,8.858546615E-2,9.832986832E0,9.833442984E0
2.098829810E0,5.027823523E-2,9.816227108E-2,9.828198433E0,9.828817231E0
2.100644345E0,4.548983276E-2,1.077390760E-1,9.825803757E0,9.826499707E0
2.102827548E0,2.394201607E-2,1.125274822E-1,9.837775230E0,9.838447903E0
2.104732114E0,1.915361360E-2,1.101332754E-1,9.832986832E0,9.833622233E0
2.106825285E0,1.675941236E-2,1.149216816E-1,9.821015358E0,9.821702018E0
2.108709883E0,2.394201607E-2,1.149216816E-1,9.816226959E0,9.816928844E0
2.110823023E0,2.873042040E-2,1.125274822E-1,9.828198433E0,9.828884591E0
2.112614614E0,2.394201607E-2,1.316810995E-1,9.825803757E0,9.826715250E0
2.114790244E0,2.394201700E-3,1.388636976E-1,9.818621635E0,9.819603845E0
2.116588191E0,9.576806799E-3,1.221042871E-1,9.811438560E0,9.812203004E0
2.118787982E0,4.788403399E-3,1.053448766E-1,9.818621635E0,9.819187914E0
2.120588191E0,1.915361360E-2,1.005564705E-1,9.811438560E0,9.811972538E0
2.122785720E0,1.915361360E-2,1.053448766E-1,9.842563629E0,9.843146001E0
2.124664614E0,1.915361360E-2,9.337386489E-2,9.847352028E0,9.847813336E0
2.126752941E0,1.197100803E-2,9.097966552E-2,9.837775230E0,9.838203194E0
2.128549306E0,1.197100803E-2,8.619125932E-2,9.818621635E0,9.819007234E0
2.130750679E0,1.436521020E-2,7.422025502E-2,9.816226959E0,9.816518055E0
2.132535845E0,7.182605099E-3,6.224924326E-2,9.825803757E0,9.826003563E0
2.134748416E0,2.633621916E-2,6.943184882E-2,9.830592155E0,9.830872622E0
2.136650576E0,4.788403399E-3,5.985504389E-2,9.835380554E0,9.835563848E0
2.138746154E0,9.576806799E-3,6.224924326E-2,9.832986832E0,9.833188532E0
2.140520729E0,1.675941236E-2,5.985504389E-2,9.832986832E0,9.833183286E0
2.142713375E0,4.788403399E-3,6.943184882E-2,9.823410034E0,9.823656570E0
2.144674037E0,-2.394201700E-3,7.422025502E-2,9.837775230E0,9.838055492E0
2.146711113E0,7.182605099E-3,7.182604820E-2,9.837775230E0,9.838040052E0
2.148518383E0,1.197100803E-2,5.506663769E-2,9.825803757E0,9.825965352E0
2.150708851E0,1.436521020E-2,5.746084079E-2,9.828198433E0,9.828376903E0
2.152491845E0,7.182605099E-3,6.943184882E-2,9.813833237E0,9.814081474E0
2.154676072E0,1.915361360E-2,7.661445439E-2,9.821015358E0,9.821332868E0
2.156474575E0,2.394201607E-2,7.182604820E-2,9.830592155E0,9.830883700E0
2.158673810E0,1.915361360E-2,6.703764945E-2,9.828198433E0,9.828445724E0
2.160470691E0,2.394201607E-2,7.422025502E-2,9.823410034E0,9.823719589E0
2.162671547E0,2.633621916E-2,9.816227108E-2,9.832986832E0,9.833512061E0
2.164566460E0,3.112462163E-2,9.576806426E-2,9.830592155E0,9.831107892E0
2.166638768E0,1.915361360E-2,1.029506698E-1,9.816226959E0,9.816785493E0
2.168430152E0,3.591302410E-2,9.816227108E-2,9.816226959E0,9.816783449E0
2.170636506E0,3.830722719E-2,1.053448766E-1,9.821015358E0,9.821655036E0
2.172430652E0,4.070143029E-2,1.197100878E-1,9.825803757E0,9.826617250E0
2.174634244E0,3.830722719E-2,1.053448766E-1,9.821015358E0,9.821655036E0
2.176469268E0,4.548983276E-2,1.077390760E-1,9.821015358E0,9.821711648E0
2.178601465E0,5.746084079E-2,1.101332754E-1,9.809044838E0,9.809831381E0
2.180479191E0,5.027823523E-2,1.101332754E-1,9.811438560E0,9.812185479E0
2.182599203E0,3.351882473E-2,1.077390760E-1,9.818621635E0,9.819269934E0
2.184506806E0,4.070143029E-2,9.337386489E-2,9.821015358E0,9.821543562E0
2.186596940E0,5.027823523E-2,8.379705995E-2,9.830592155E0,9.831077864E0
2.188378537E0,4.788403213E-2,7.900865376E-2,9.837775230E0,9.838209021E0
2.190594679E0,4.548983276E-2,8.140286058E-2,9.844957352E0,9.845398977E0
2.192433306E0,4.548983276E-2,8.379705995E-2,9.830592155E0,9.831054542E0
2.194561899E0,4.548983276E-2,6.703764945E-2,9.821015358E0,9.821349502E0
2.196349229E0,4.309562966E-2,6.703764945E-2,9.828198433E0,9.828521543E0
2.198559637E0,4.548983276E-2,7.661445439E-2,9.825803757E0,9.826207741E0
2.200382806E0,2.633621916E-2,7.422025502E-2,9.825803757E0,9.826119362E0
2.202557376E0,3.112462163E-2,6.224924326E-2,9.828198433E0,9.828444849E0
2.204427460E0,2.394201607E-2,6.224924326E-2,9.825803757E0,9.826030107E0
2.206524596E0,1.915361360E-2,6.464344263E-2,9.825803757E0,9.826035065E0
2.208311422E0,1.675941236E-2,5.267243832E-2,9.825803757E0,9.825959227E0
2.210522335E0,2.394201607E-2,6.464344263E-2,9.825803757E0,9.826045566E0
2.212298537E0,1.915361360E-2,6.224924326E-2,9.832986832E0,9.833202523E0
2.214520072E0,2.633621916E-2,5.267243832E-2,9.823410034E0,9.823586549E0
2.216289922E0,2.633621916E-2,5.985504389E-2,9.821015358E0,9.821233063E0
2.218487293E0,1.675941236E-2,6.703764945E-2,9.821015358E0,9.821258452E0
2.220308960E0,3.112462163E-2,7.661445439E-2,9.811438560E0,9.811787051E0
2.222485031E0,2.633621916E-2,7.661445439E-2,9.804255486E0,9.804590200E0
2.224373114E0,2.394201607E-2,8.619125932E-2,9.813833237E0,9.814240926E0
2.226482769E0,1.915361360E-2,1.077390760E-1,9.811438560E0,9.812048777E0
2.228260037E0,1.675941236E-2,1.053448766E-1,9.816226959E0,9.816806514E0
2.230480507E0,1.436521020E-2,1.197100878E-1,9.813833237E0,9.814573840E0
2.232251614E0,2.154781483E-2,1.101332754E-1,9.818621635E0,9.819262929E0
2.234447728E0,9.576806799E-3,1.149216816E-1,9.818621635E0,9.819298831E0
2.236235768E0,-2.394201700E-3,1.244984865E-1,9.813833237E0,9.814623192E0
2.238445466E0,-2.394201700E-3,1.173158810E-1,9.828198433E0,9.828898880E0
2.240228768E0,1.915361360E-2,1.053448766E-1,9.832986832E0,9.833569771E0
2.242443203E0,2.633621916E-2,9.816227108E-2,9.818621635E0,9.819147633E0
2.244314383E0,2.154781483E-2,1.029506698E-1,9.821015358E0,9.821578580E0
2.246410425E0,2.633621916E-2,1.077390760E-1,9.816226959E0,9.816853519E0
2.248223575E0,2.394201607E-2,1.005564705E-1,9.809044838E0,9.809589464E0
2.250408162E0,2.154781483E-2,9.337386489E-2,9.813833237E0,9.814301085E0
2.252205191E0,3.351882473E-2,9.097966552E-2,9.828198433E0,9.828676678E0
2.254405900E0,3.112462163E-2,8.619125932E-2,9.816226959E0,9.816654694E0
2.256185768E0,3.591302410E-2,9.337386489E-2,9.821015358E0,9.821524886E0
2.258403638E0,4.309562966E-2,1.077390760E-1,9.847352028E0,9.848035688E0
2.260159345E0,3.591302410E-2,9.337386489E-2,9.844957352E0,9.845465641E0
2.262370859E0,2.873042040E-2,8.858546615E-2,9.828198433E0,9.828639644E0
2.264288768E0,1.197100803E-2,8.379705995E-2,9.823410034E0,9.823774730E0
2.266368597E0,3.112462163E-2,6.224924326E-2,9.828198433E0,9.828444849E0
2.268137614E0,3.830722719E-2,4.548983276E-2,9.825803757E0,9.825983729E0
2.270366334E0,4.070143029E-2,4.548983276E-2,9.837775230E0,9.837964597E0
2.272160691E0,3.830722719E-2,5.267243832E-2,9.825803757E0,9.826019606E0
2.274364072E0,2.154781483E-2,5.506663769E-2,9.828198433E0,9.828376320E0
2.276128075E0,1.675941236E-2,5.267243832E-2,9.823410034E0,9.823565542E0
2.278331293E0,1.197100803E-2,4.070143029E-2,9.830592155E0,9.830683701E0
2.280128883E0,1.436521020E-2,4.788403213E-2,9.825803757E0,9.825930933E0
2.282329031E0,2.633621916E-2,5.267243832E-2,9.821015358E0,9.821191916E0
2.284198652E0,4.309562966E-2,4.788403213E-2,9.823410034E0,9.823621268E0
2.286326769E0,3.112462163E-2,4.309562966E-2,9.816226959E0,9.816370902E0
2.288118498E0,2.154781483E-2,5.746084079E-2,9.811438560E0,9.811630480E0
2.290293990E0,2.394201607E-2,6.224924326E-2,9.816226959E0,9.816453530E0
2.292072498E0,2.154781483E-2,8.140286058E-2,9.818621635E0,9.818982715E0
2.294291728E0,-4.788403399E-3,8.140286058E-2,9.825803757E0,9.826142113E0
2.296066729E0,-7.182605099E-3,8.858546615E-2,9.830592155E0,9.830993902E0
2.298289465E0,7.182605099E-3,8.619125932E-2,9.813833237E0,9.814214351E0
2.300053883E0,1.915361360E-2,1.005564705E-1,9.804255486E0,9.804789854E0
2.302256687E0,2.154781483E-2,1.077390760E-1,9.806650162E0,9.807265644E0
2.304162191E0,1.915361360E-2,1.173158810E-1,9.801861763E0,9.802582512E0
2.306254424E0,0.000000000E0,9.576806426E-2,9.830592155E0,9.831058623E0
2.308036422E0,7.182605099E-3,1.029506698E-1,9.828198433E0,9.828740248E0
2.310252162E0,2.394201607E-2,1.221042871E-1,9.804255486E0,9.805045043E0
2.312062691E0,1.197100803E-2,1.125274822E-1,9.801861763E0,9.802514971E0
2.314249900E0,1.197100803E-2,9.816227108E-2,9.799467087E0,9.799966037E0
2.316011998E0,1.915361360E-2,1.125274822E-1,9.801861763E0,9.802526374E0
2.318217121E0,1.915361360E-2,1.101332754E-1,9.821015358E0,9.821651534E0
2.320013806E0,3.351882473E-2,9.337386489E-2,9.818621635E0,9.819122823E0
2.322214859E0,3.830722719E-2,8.619125932E-2,9.804255486E0,9.804709175E0
2.324117191E0,2.873042040E-2,1.149216816E-1,9.804255486E0,9.804971089E0
2.326212597E0,2.394201607E-2,9.816227108E-2,9.811438560E0,9.811958809E0
2.328011537E0,2.873042040E-2,9.576806426E-2,9.821015358E0,9.821524302E0
2.330179818E0,4.070143029E-2,1.005564705E-1,9.825803757E0,9.826402581E0
2.331983383E0,3.112462163E-2,1.029506698E-1,9.825803757E0,9.826392372E0
2.334177555E0,2.873042040E-2,9.816227108E-2,9.825803757E0,9.826336079E0
2.335963152E0,2.633621916E-2,7.422025502E-2,9.811438560E0,9.811754627E0
2.338175294E0,7.182605099E-3,5.985504389E-2,9.830592155E0,9.830776996E0
2.339951498E0,4.788403213E-2,7.182604820E-2,9.830592155E0,9.830971162E0
2.342173032E0,5.506663769E-2,6.464344263E-2,9.832986832E0,9.833353504E0
2.344038422E0,3.112462163E-2,8.619125932E-2,9.856928825E0,9.857354794E0
2.346140252E0,2.394201607E-2,4.548983276E-2,9.835380554E0,9.835514892E0
2.347934768E0,2.154781483E-2,4.548983276E-2,9.825803757E0,9.825932683E0
2.350137991E0,2.394201607E-2,5.506663769E-2,9.842563629E0,9.842746789E0
2.351993652E0,4.070143029E-2,6.464344263E-2,9.842563629E0,9.842860061E0
2.354135728E0,4.788403213E-2,6.943184882E-2,9.842563629E0,9.842924995E0
2.355945460E0,3.112462163E-2,7.182604820E-2,9.842563629E0,9.842874911E0
2.358133466E0,2.154781483E-2,9.097966552E-2,9.830592155E0,9.831036758E0
2.359891575E0,1.197100803E-2,8.379705995E-2,9.818621635E0,9.818986509E0
2.362100687E0,3.830722719E-2,8.140286058E-2,9.811438560E0,9.811851023E0
2.363979845E0,3.830722719E-2,7.661445439E-2,9.844957352E0,9.845329983E0
2.366098425E0,2.873042040E-2,8.858546615E-2,9.823410034E0,9.823851461E0
2.367892652E0,2.633621916E-2,8.858546615E-2,9.823410034E0,9.823844750E0
2.370096163E0,2.154781483E-2,1.005564705E-1,9.825803757E0,9.826341912E0
2.371881691E0,3.351882473E-2,1.077390760E-1,9.818621635E0,9.819269934E0
2.374063384E0,3.591302410E-2,1.125274822E-1,9.811438560E0,9.812149551E0
2.375879768E0,2.633621916E-2,1.101332754E-1,9.811438560E0,9.812092007E0
2.378061122E0,3.112462163E-2,1.101332754E-1,9.806650162E0,9.807317955E0
2.379861691E0,1.197100803E-2,1.125274822E-1,9.821015358E0,9.821667292E0
2.382058859E0,2.394201700E-3,1.029506698E-1,9.804255486E0,9.804796285E0
2.384025998E0,1.675941236E-2,1.077390760E-1,9.801861763E0,9.802468190E0
2.386026081E0,9.576806799E-3,9.576806426E-2,9.813833237E0,9.814305173E0
2.387855960E0,2.394201607E-2,9.816227108E-2,9.818621635E0,9.819141504E0
2.390023818E0,2.873042040E-2,1.149216816E-1,9.809044838E0,9.809760092E0
2.391917345E0,2.873042040E-2,1.316810995E-1,9.816226959E0,9.817152187E0
2.394021556E0,2.154781483E-2,1.221042871E-1,9.818621635E0,9.819404492E0
2.395814383E0,7.182605099E-3,1.077390760E-1,9.801861763E0,9.802456494E0
2.398019294E0,7.182605099E-3,8.140286058E-2,9.806650162E0,9.806990640E0
2.399786421E0,-7.182605099E-3,6.943184882E-2,9.811438560E0,9.811686858E0
2.401986515E0,1.197100803E-2,6.943184882E-2,9.797073364E0,9.797326706E0
2.403859498E0,1.675941236E-2,5.506663769E-2,9.809044838E0,9.809213722E0
2.405984253E0,1.675941236E-2,5.746084079E-2,9.813833237E0,9.814015764E0
2.407747614E0,1.436521020E-2,5.506663769E-2,9.816226959E0,9.816391924E0
2.409981990E0,1.675941236E-2,7.182604820E-2,9.813833237E0,9.814110385E0
2.411751768E0,2.394201607E-2,5.267243832E-2,9.823410034E0,9.823580422E0
2.413949212E0,2.394201607E-2,5.985504389E-2,9.811438560E0,9.811650344E0
2.415729037E0,3.112462163E-2,7.182604820E-2,9.811438560E0,9.811750830E0
2.417946949E0,1.675941236E-2,5.746084079E-2,9.837775230E0,9.837957314E0
2.419729729E0,2.394201607E-2,5.267243832E-2,9.835380554E0,9.835550735E0
2.421944687E0,2.873042040E-2,5.506663769E-2,9.813833237E0,9.814029782E0
2.423834152E0,1.675941236E-2,7.182604820E-2,9.823410034E0,9.823686913E0
2.425942425E0,1.915361360E-2,7.900865376E-2,9.828198433E0,9.828534665E0
2.427734268E0,1.436521020E-2,9.576806426E-2,9.809044838E0,9.809522848E0
2.429909646E0,1.915361360E-2,8.858546615E-2,9.823410034E0,9.823828121E0
2.431691768E0,3.830722719E-2,9.816227108E-2,9.823410034E0,9.823975162E0
2.433907384E0,5.027823523E-2,1.005564705E-1,9.811438560E0,9.812082660E0
2.435671729E0,4.548983276E-2,1.029506698E-1,9.830592155E0,9.831236458E0
2.437905121E0,4.309562966E-2,9.097966552E-2,9.830592155E0,9.831107601E0
2.439669883E0,3.351882473E-2,9.816227108E-2,9.823410034E0,9.823957657E0
2.441872343E0,2.633621916E-2,1.053448766E-1,9.835380554E0,9.835979961E0
2.443747345E0,3.591302410E-2,1.053448766E-1,9.837775230E0,9.838404788E0
2.445870080E0,3.351882473E-2,1.077390760E-1,9.825803757E0,9.826451582E0
2.447640268E0,1.675941236E-2,1.029506698E-1,9.821015358E0,9.821569242E0
2.449867818E0,1.915361360E-2,1.005564705E-1,9.823410034E0,9.823943361E0
2.451637037E0,2.154781483E-2,9.816227108E-2,9.821015358E0,9.821529555E0
2.453835039E0,5.027823523E-2,9.816227108E-2,9.830592155E0,9.831210803E0
2.455654768E0,2.873042040E-2,9.337386489E-2,9.813833237E0,9.814319483E0
2.457832777E0,2.154781483E-2,8.858546615E-2,9.821015358E0,9.821438507E0
2.459601268E0,2.873042040E-2,8.140286058E-2,9.823410034E0,9.823789318E0
2.461830515E0,2.633621916E-2,8.379705995E-2,9.823410034E0,9.823802738E0
2.463794960E0,1.436521020E-2,8.140286058E-2,9.823410034E0,9.823757809E0
2.465828253E0,2.154781483E-2,8.379705995E-2,9.821015358E0,9.821396485E0
2.467603998E0,1.197100803E-2,7.422025502E-2,9.816226959E0,9.816514843E0
2.469795473E0,2.633621916E-2,8.858546615E-2,9.821015358E0,9.821450180E0
2.471584229E0,4.309562966E-2,8.140286058E-2,9.811438560E0,9.811870886E0
2.473793211E0,3.351882473E-2,8.379705995E-2,9.811438560E0,9.811853652E0
2.475560691E0,1.436521020E-2,8.140286058E-2,9.813833237E0,9.814181351E0
2.477790950E0,3.351882473E-2,6.464344263E-2,9.828198433E0,9.828468178E0
2.479564229E0,2.633621916E-2,5.746084079E-2,9.825803757E0,9.826007063E0
2.481758170E0,1.915361360E-2,6.224924326E-2,9.823410034E0,9.823625936E0
2.483656075E0,1.436521020E-2,5.985504389E-2,9.830592155E0,9.830784868E0
2.485755908E0,2.154781483E-2,5.985504389E-2,9.832986832E0,9.833192613E0
2.487548652E0,3.351882473E-2,5.746084079E-2,9.828198433E0,9.828423561E0
2.489753647E0,1.675941236E-2,5.506663769E-2,9.809044838E0,9.809213722E0
2.491535344E0,1.197100803E-2,5.027823523E-2,9.816226959E0,9.816363019E0
2.493720867E0,9.576806799E-3,7.900865376E-2,9.825803757E0,9.826126070E0
2.495524998E0,1.436521020E-2,9.097966552E-2,9.816226959E0,9.816659074E0
2.497718604E0,1.915361360E-2,7.661445439E-2,9.818621635E0,9.818939223E0
2.499500921E0,9.576806799E-3,7.661445439E-2,9.816226959E0,9.816530609E0
2.501716343E0,2.154781483E-2,8.379705995E-2,9.825803757E0,9.826184698E0
2.503619268E0,2.633621916E-2,8.140286058E-2,9.835380554E0,9.835752674E0
2.505714081E0,2.873042040E-2,9.576806426E-2,9.828198433E0,9.828707005E0
2.507510575E0,3.112462163E-2,1.029506698E-1,9.821015358E0,9.821604260E0
2.509681301E0,9.576806799E-3,6.943184882E-2,9.830592155E0,9.830842010E0
2.511505844E0,1.197100803E-2,8.858546615E-2,9.828198433E0,9.828604943E0
2.513679040E0,2.873042040E-2,1.101332754E-1,9.823410034E0,9.824069395E0
2.515486114E0,3.351882473E-2,1.101332754E-1,9.823410034E0,9.824084565E0
2.517676778E0,3.351882473E-2,1.005564705E-1,9.828198433E0,9.828769992E0
2.519557306E0,3.830722719E-2,1.077390760E-1,9.825803757E0,9.826469082E0
2.521643998E0,5.746084079E-2,9.816227108E-2,9.816226959E0,9.816885927E0
2.523553421E0,3.351882473E-2,1.053448766E-1,9.821015358E0,9.821637527E0
2.525641736E0,2.873042040E-2,1.005564705E-1,9.809044838E0,9.809602320E0
2.527432575E0,1.675941236E-2,1.053448766E-1,9.816226959E0,9.816806514E0
2.529639474E0,2.633621916E-2,1.029506698E-1,9.813833237E0,9.814408552E0
2.531429921E0,2.154781483E-2,9.337386489E-2,9.813833237E0,9.814301085E0
2.533606694E0,2.633621916E-2,6.464344263E-2,9.821015358E0,9.821263413E0
2.535401806E0,4.070143029E-2,7.182604820E-2,9.813833237E0,9.814180474E0
2.537604433E0,3.830722719E-2,6.703764945E-2,9.809044838E0,9.809348710E0
2.539509883E0,2.873042040E-2,6.224924326E-2,9.799467087E0,9.799706913E0
2.541602171E0,2.873042040E-2,8.858546615E-2,9.816226959E0,9.816668709E0
2.543526268E0,2.633621916E-2,1.005564705E-1,9.823410034E0,9.823959991E0
2.545599909E0,1.675941236E-2,9.816227108E-2,9.825803757E0,9.826308370E0
2.547468537E0,1.675941236E-2,8.140286058E-2,9.818621635E0,9.818973374E0
2.549567130E0,2.154781483E-2,6.703764945E-2,9.811438560E0,9.811691240E0
2.551395114E0,2.154781483E-2,6.464344263E-2,9.806650162E0,9.806886890E0
2.553564867E0,1.675941236E-2,5.027823523E-2,9.811438560E0,9.811581697E0
2.555408537E0,1.197100803E-2,6.224924326E-2,9.818621635E0,9.818826258E0
2.557562605E0,2.154781483E-2,6.703764945E-2,9.823410034E0,9.823662405E0
2.559309729E0,3.591302410E-2,7.900865376E-2,9.821015358E0,9.821398820E0
2.561529826E0,1.675941236E-2,8.140286058E-2,9.799467087E0,9.799819513E0
2.563416306E0,1.675941236E-2,8.858546615E-2,9.806650162E0,9.807064579E0
2.565527564E0,2.154781483E-2,9.337386489E-2,9.823410034E0,9.823877426E0
2.567325306E0,9.576806799E-3,9.097966552E-2,9.823410034E0,9.823835998E0
2.569525302E0,2.633621916E-2,8.619125932E-2,9.816226959E0,9.816640680E0
2.571328729E0,3.112462163E-2,8.858546615E-2,9.828198433E0,9.828646935E0
2.573492523E0,3.830722719E-2,7.422025502E-2,9.828198433E0,9.828553328E0
2.575329806E0,3.591302410E-2,8.619125932E-2,9.816226959E0,9.816671044E0
2.577490261E0,3.830722719E-2,9.337386489E-2,9.813833237E0,9.814352191E0
2.579289921E0,2.873042040E-2,9.337386489E-2,9.813833237E0,9.814319483E0
2.581487998E0,1.197100803E-2,8.379705995E-2,9.823410034E0,9.823774730E0
2.583373075E0,7.182605099E-3,7.900865376E-2,9.828198433E0,9.828518627E0
2.585455220E0,2.394201607E-2,1.029506698E-1,9.818621635E0,9.819190541E0
2.587257498E0,2.633621916E-2,1.173158810E-1,9.825803757E0,9.826539374E0
2.589452957E0,2.873042040E-2,1.053448766E-1,9.835380554E0,9.835986663E0
2.591346191E0,3.830722719E-2,1.173158810E-1,9.832986832E0,9.833761259E0
2.593450695E0,3.591302410E-2,1.149216816E-1,9.835380554E0,9.836117495E0
2.595266921E0,4.548983276E-2,1.077390760E-1,9.818621635E0,9.819318095E0
2.597417916E0,3.830722719E-2,1.053448766E-1,9.806650162E0,9.807290777E0
2.599381267E0,1.915361360E-2,9.576806426E-2,9.816226959E0,9.816712795E0
2.601415654E0,1.197100803E-2,8.619125932E-2,9.835380554E0,9.835765496E0
2.603376460E0,1.436521020E-2,9.337386489E-2,9.840168953E0,9.840622443E0
2.605413392E0,2.633621916E-2,8.619125932E-2,9.825803757E0,9.826217074E0
2.607181729E0,1.915361360E-2,9.337386489E-2,9.825803757E0,9.826266076E0
2.609411129E0,2.873042040E-2,7.182604820E-2,9.821015358E0,9.821320027E0
2.611192844E0,4.788403213E-2,7.422025502E-2,9.809044838E0,9.809442500E0
2.613378351E0,3.112462163E-2,5.746084079E-2,9.821015358E0,9.821232771E0
2.615239614E0,3.351882473E-2,7.182604820E-2,9.832986832E0,9.833306287E0
2.617376088E0,4.548983276E-2,8.379705995E-2,9.832986832E0,9.833449105E0
2.619331998E0,3.112462163E-2,7.422025502E-2,9.825803757E0,9.826133362E0
2.621373826E0,4.309562966E-2,7.661445439E-2,9.816226959E0,9.816620535E0
2.623239614E0,3.351882473E-2,6.943184882E-2,9.823410034E0,9.823712587E0
2.625341047E0,1.675941236E-2,6.464344263E-2,9.828198433E0,9.828425311E0
2.627129498E0,1.915361360E-2,7.661445439E-2,9.840168953E0,9.840485845E0
2.629338785E0,1.675941236E-2,6.943184882E-2,9.830592155E0,9.830851631E0
2.631173998E0,2.633621916E-2,8.140286058E-2,9.804255486E0,9.804628787E0
2.633336523E0,9.576806799E-3,6.224924326E-2,9.816226959E0,9.816429004E0
2.635175652E0,4.788403399E-3,6.464344263E-2,9.818621635E0,9.818835599E0
2.637334260E0,1.675941236E-2,6.943184882E-2,9.809044838E0,9.809304883E0
2.639216421E0,4.788403399E-3,6.703764945E-2,9.816226959E0,9.816457033E0
2.641301482E0,2.394201700E-3,6.943184882E-2,9.792284966E0,9.792531407E0
2.643255537E0,9.576806799E-3,7.182604820E-2,9.787496567E0,9.787764798E0
2.645299219E0,4.788403399E-3,7.900865376E-2,9.799467087E0,9.799786757E0
2.647081498E0,2.154781483E-2,8.858546615E-2,9.804255486E0,9.804679358E0
2.649296957E0,1.915361360E-2,8.140286058E-2,9.809044838E0,9.809401303E0
2.651050421E0,7.182605099E-3,8.858546615E-2,9.821015358E0,9.821417496E0
2.653264178E0,2.154781483E-2,9.816227108E-2,9.823410034E0,9.823924106E0
2.655057883E0,2.633621916E-2,1.077390760E-1,9.821015358E0,9.821641613E0
2.657261916E0,1.915361360E-2,1.053448766E-1,9.821015358E0,9.821599008E0
2.659061998E0,9.576806799E-3,1.101332754E-1,9.828198433E0,9.828820147E0
2.661259654E0,4.788403399E-3,1.053448766E-1,9.832986832E0,9.833552283E0
2.663171921E0,1.197100803E-2,1.101332754E-1,9.832986832E0,9.833610867E0
2.665226875E0,1.197100803E-2,1.053448766E-1,9.818621635E0,9.819194044E0
2.667033383E0,1.915361360E-2,8.858546615E-2,9.818621635E0,9.819039926E0
2.669224613E0,2.633621916E-2,9.097966552E-2,9.816226959E0,9.816683891E0
2.671019960E0,2.633621916E-2,7.900865376E-2,9.823410034E0,9.823763060E0
2.673222351E0,2.394201607E-2,7.422025502E-2,9.832986832E0,9.833296085E0
2.675011383E0,2.394201607E-2,7.900865376E-2,9.842563629E0,9.842909853E0
2.677220089E0,3.112462163E-2,7.182604820E-2,9.835380554E0,9.835692064E0
2.679023960E0,2.873042040E-2,9.097966552E-2,9.828198433E0,9.828661515E0
2.681187309E0,3.830722719E-2,8.140286058E-2,9.825803757E0,9.826215616E0
2.683083883E0,3.112462163E-2,6.943184882E-2,9.825803757E0,9.826098360E0
2.685185048E0,2.633621916E-2,9.097966552E-2,9.806650162E0,9.807107539E0
2.686956267E0,2.633621916E-2,8.619125932E-2,9.823410034E0,9.823823453E0
2.689182786E0,2.154781483E-2,7.900865376E-2,9.828198433E0,9.828539623E0
2.690943037E0,3.112462163E-2,8.619125932E-2,9.806650162E0,9.807078315E0
2.693150006E0,4.788403213E-2,8.140286058E-2,9.806650162E0,9.807104909E0
2.694972537E0,3.591302410E-2,8.379705995E-2,9.813833237E0,9.814256696E0
2.697147745E0,5.027823523E-2,8.858546615E-2,9.816226959E0,9.816755421E0
2.698948498E0,4.070143029E-2,9.576806426E-2,9.830592155E0,9.831142876E0
2.701145482E0,4.788403213E-2,8.619125932E-2,9.828198433E0,9.828693008E0
2.703041383E0,3.112462163E-2,7.182604820E-2,9.809044838E0,9.809357184E0
2.705112702E0,3.591302410E-2,7.900865376E-2,9.813833237E0,9.814216979E0
2.706910383E0,3.112462163E-2,9.816227108E-2,9.828198433E0,9.828737915E0
2.709110441E0,2.154781483E-2,1.029506698E-1,9.821015358E0,9.821578580E0
2.710878383E0,9.576806799E-3,1.005564705E-1,9.787496567E0,9.788017795E0
2.713108179E0,1.436521020E-2,1.197100878E-1,9.789890289E0,9.790632704E0
2.714884152E0,1.915361360E-2,1.268926859E-1,9.801861763E0,9.802701803E0
2.717075399E0,2.154781483E-2,1.268926859E-1,9.809044838E0,9.809889229E0
2.718887614E0,1.915361360E-2,8.858546615E-2,9.835380554E0,9.835798132E0
2.721073138E0,9.576806799E-3,7.661445439E-2,9.828198433E0,9.828501713E0
2.722954306E0,1.915361360E-2,8.858546615E-2,9.811438560E0,9.811857157E0
2.725070876E0,1.675941236E-2,9.816227108E-2,9.821015358E0,9.821520217E0
2.726897114E0,2.154781483E-2,1.077390760E-1,9.816226959E0,9.816841841E0
2.729038096E0,2.873042040E-2,1.077390760E-1,9.823410034E0,9.824042846E0
2.730846998E0,2.873042040E-2,8.858546615E-2,9.830592155E0,9.831033259E0
2.733035834E0,2.154781483E-2,8.140286058E-2,9.811438560E0,9.811799904E0
2.735019444E0,2.873042040E-2,7.182604820E-2,9.806650162E0,9.806955277E0
2.737033572E0,2.154781483E-2,7.661445439E-2,9.823410034E0,9.823732426E0
2.738980114E0,2.394201607E-2,6.943184882E-2,9.837775230E0,9.838049374E0
2.741000792E0,2.633621916E-2,6.224924326E-2,9.832986832E0,9.833219137E0
2.742925306E0,2.873042040E-2,6.943184882E-2,9.816226959E0,9.816514551E0
2.744998531E0,1.915361360E-2,7.182604820E-2,9.816226959E0,9.816508420E0
2.746807998E0,2.633621916E-2,6.464344263E-2,9.811438560E0,9.811686858E0
2.748996269E0,2.873042040E-2,5.746084079E-2,9.811438560E0,9.811648883E0
2.750799690E0,2.154781483E-2,6.703764945E-2,9.818621635E0,9.818874130E0
2.752994006E0,2.394201607E-2,6.224924326E-2,9.806650162E0,9.806876954E0
2.754780383E0,3.112462163E-2,5.985504389E-2,9.809044838E0,9.809276834E0
2.756961228E0,2.633621916E-2,8.619125932E-2,9.821015358E0,9.821428877E0
2.758791383E0,5.027823523E-2,1.005564705E-1,9.825803757E0,9.826446915E0
2.760958965E0,5.506663769E-2,9.816227108E-2,9.828198433E0,9.828842892E0
2.762887075E0,3.112462163E-2,1.101332754E-1,9.837775230E0,9.838440911E0
2.764956703E0,3.351882473E-2,9.576806426E-2,9.821015358E0,9.821539477E0
2.766741921E0,2.633621916E-2,9.337386489E-2,9.818621635E0,9.819100931E0
2.768923924E0,1.436521020E-2,1.173158810E-1,9.823410034E0,9.824121033E0
2.770736344E0,3.112462163E-2,1.029506698E-1,9.823410034E0,9.823998793E0
2.772921662E0,4.309562966E-2,8.858546615E-2,9.806650162E0,9.807144947E0
2.774703729E0,2.394201607E-2,9.337386489E-2,9.823410034E0,9.823882969E0
2.776919400E0,1.915361360E-2,9.097966552E-2,9.835380554E0,9.835819986E0
2.778721075E0,1.675941236E-2,8.858546615E-2,9.823410034E0,9.823823744E0
2.780917137E0,1.675941236E-2,8.140286058E-2,9.828198433E0,9.828549829E0
2.782840729E0,3.112462163E-2,7.900865376E-2,9.837775230E0,9.838141725E0
2.784884359E0,4.548983276E-2,7.182604820E-2,9.806650162E0,9.807018696E0
2.786731844E0,3.830722719E-2,6.943184882E-2,9.811438560E0,9.811759009E0
2.788882096E0,2.154781483E-2,8.379705995E-2,9.837775230E0,9.838155708E0
2.790724344E0,4.309562966E-2,7.900865376E-2,9.823410034E0,9.823822286E0
2.792879834E0,4.070143029E-2,7.422025502E-2,9.830592155E0,9.830956585E0
2.794672729E0,2.633621916E-2,7.900865376E-2,9.837775230E0,9.838127741E0
2.796847055E0,2.873042040E-2,9.097966552E-2,9.818621635E0,9.819085169E0
2.798656844E0,2.873042040E-2,7.900865376E-2,9.825803757E0,9.826163405E0
2.800844793E0,1.915361360E-2,6.464344263E-2,9.825803757E0,9.826035065E0
2.802753037E0,2.394201607E-2,6.703764945E-2,9.818621635E0,9.818879676E0
2.804842531E0,0.000000000E0,7.661445439E-2,9.818621635E0,9.818920541E0
2.806602498E0,2.394201700E-3,8.140286058E-2,9.813833237E0,9.814171129E0
2.808809752E0,7.182605099E-3,8.379705995E-2,9.813833237E0,9.814193616E0
2.810607383E0,2.154781483E-2,7.182604820E-2,9.825803757E0,9.826089902E0
2.812807490E0,7.182605099E-3,6.224924326E-2,9.825803757E0,9.826003563E0
2.814591537E0,-4.788403399E-3,7.182604820E-2,9.821015358E0,9.821279172E0
2.816805227E0,4.788403399E-3,9.097966552E-2,9.825803757E0,9.826226117E0
2.818619690E0,9.576806799E-3,8.619125932E-2,9.825803757E0,9.826186448E0
2.820772449E0,3.351882473E-2,9.097966552E-2,9.828198433E0,9.828676678E0
2.822715806E0,2.394201607E-2,8.858546615E-2,9.832986832E0,9.833415004E0
2.824770186E0,1.436521020E-2,9.337386489E-2,9.811438560E0,9.811893378E0
2.826541344E0,1.436521020E-2,9.097966552E-2,9.813833237E0,9.814265457E0
2.828767924E0,2.394201607E-2,1.005564705E-1,9.818621635E0,9.819165731E0
2.830718113E0,2.394201607E-2,1.053448766E-1,9.818621635E0,9.819215935E0
2.832735145E0,1.197100803E-2,1.173158810E-1,9.823410034E0,9.824117824E0
2.834554190E0,1.436521020E-2,1.005564705E-1,9.835380554E0,9.835905073E0
2.836732883E0,3.591302410E-2,9.097966552E-2,9.830592155E0,9.831078739E0
2.838511306E0,2.873042040E-2,9.337386489E-2,9.830592155E0,9.831077573E0
2.840730621E0,1.675941236E-2,1.077390760E-1,9.835380554E0,9.835984914E0
2.842587075E0,2.394201607E-2,1.005564705E-1,9.821015358E0,9.821559320E0
2.844697842E0,2.394201607E-2,1.005564705E-1,9.828198433E0,9.828741998E0
2.846519537E0,1.915361360E-2,9.576806426E-2,9.832986832E0,9.833471839E0
2.848695579E0,1.915361360E-2,1.125274822E-1,9.825803757E0,9.826466749E0
2.850482152E0,1.675941236E-2,1.173158810E-1,9.825803757E0,9.826518374E0
2.852693317E0,3.112462163E-2,1.125274822E-1,9.828198433E0,9.828891881E0
2.854480267E0,5.506663769E-2,1.125274822E-1,9.813833237E0,9.814632829E0
2.856660538E0,4.309562966E-2,9.337386489E-2,9.828198433E0,9.828736457E0
2.858674666E0,4.309562966E-2,9.097966552E-2,9.825803757E0,9.826319453E0
2.860658276E0,2.873042040E-2,9.337386489E-2,9.816226959E0,9.816713087E0
2.862560037E0,3.591302410E-2,9.337386489E-2,9.823410034E0,9.823919438E0
2.864656014E0,2.633621916E-2,9.097966552E-2,9.828198433E0,9.828654808E0
2.866444229E0,2.154781483E-2,8.619125932E-2,9.816226959E0,9.816629002E0
2.868623235E0,9.576806799E-3,9.097966552E-2,9.806650162E0,9.807076853E0
2.870420383E0,1.915361360E-2,6.703764945E-2,9.809044838E0,9.809292612E0
2.872620973E0,2.873042040E-2,6.224924326E-2,9.811438560E0,9.811678095E0
2.874413037E0,2.154781483E-2,7.422025502E-2,9.811438560E0,9.811742943E0
2.876618710E0,2.154781483E-2,7.900865376E-2,9.806650162E0,9.806992101E0
2.878395037E0,2.394201607E-2,6.943184882E-2,9.804255486E0,9.804530566E0
2.880585932E0,1.436521020E-2,7.182604820E-2,9.806650162E0,9.806923714E0
2.882600059E0,1.197100803E-2,7.661445439E-2,9.823410034E0,9.823716088E0
2.884583669E0,2.394201607E-2,8.140286058E-2,9.825803757E0,9.826170114E0
2.886369421E0,1.197100803E-2,8.858546615E-2,9.830592155E0,9.830998567E0
2.888581407E0,2.633621916E-2,8.379705995E-2,9.813833237E0,9.814226324E0
2.890357190E0,3.591302410E-2,6.943184882E-2,9.809044838E0,9.809356307E0
2.892548628E0,1.436521020E-2,6.943184882E-2,9.823410034E0,9.823665906E0
2.894354383E0,9.576806799E-3,7.900865376E-2,9.828198433E0,9.828520668E0
2.896546366E0,9.576806799E-3,7.422025502E-2,9.823410034E0,9.823695082E0
2.898386229E0,1.197100803E-2,7.182604820E-2,9.825803757E0,9.826073567E0
2.900544104E0,1.436521020E-2,6.943184882E-2,9.818621635E0,9.818877632E0
2.902527714E0,1.197100803E-2,7.661445439E-2,9.821015358E0,9.821321486E0
2.904511325E0,1.675941236E-2,6.943184882E-2,9.809044838E0,9.809304883E0
2.906307767E0,9.576806799E-3,7.900865376E-2,9.813833237E0,9.814155943E0
2.908509063E0,2.873042040E-2,9.097966552E-2,9.832986832E0,9.833449688E0
2.910335344E0,4.309562966E-2,8.619125932E-2,9.830592155E0,9.831064454E0
2.912506800E0,4.788403213E-2,6.943184882E-2,9.828198433E0,9.828560327E0
2.914334267E0,2.633621916E-2,5.746084079E-2,9.818621635E0,9.818825091E0
2.916474022E0,1.915361360E-2,6.943184882E-2,9.813833237E0,9.814097536E0
2.918343344E0,2.873042040E-2,6.703764945E-2,9.811438560E0,9.811709643E0
2.920471759E0,3.830722719E-2,7.661445439E-2,9.821015358E0,9.821388898E0
2.922362844E0,2.154781483E-2,7.661445439E-2,9.818621635E0,9.818944185E0
2.924469497E0,2.154781483E-2,8.140286058E-2,9.823410034E0,9.823770938E0
2.926452921E0,3.351882473E-2,9.097966552E-2,9.823410034E0,9.823888513E0
2.928436718E0,3.112462163E-2,8.140286058E-2,9.818621635E0,9.819008401E0
2.930217152E0,2.394201607E-2,9.816227108E-2,9.816226959E0,9.816746954E0
2.932434456E0,1.675941236E-2,9.337386489E-2,9.821015358E0,9.821473526E0
2.934194844E0,4.070143029E-2,9.337386489E-2,9.821015358E0,9.821543562E0
2.936432194E0,5.746084079E-2,9.097966552E-2,9.823410034E0,9.823999376E0
2.938204075E0,4.548983276E-2,1.053448766E-1,9.811438560E0,9.812109533E0
2.940399415E0,3.351882473E-2,7.661445439E-2,9.825803757E0,9.826159614E0
2.942319806E0,2.154781483E-2,5.027823523E-2,9.844957352E0,9.845109317E0
2.944397152E0,2.154781483E-2,5.506663769E-2,9.835380554E0,9.835558311E0
2.946175575E0,3.112462163E-2,7.661445439E-2,9.847352028E0,9.847699248E0
2.948394890E0,2.873042040E-2,8.140286058E-2,9.842563629E0,9.842942175E0
2.950165460E0,2.633621916E-2,8.140286058E-2,9.830592155E0,9.830964457E0
2.952362111E0,1.675941236E-2,6.224924326E-2,9.818621635E0,9.818833264E0
2.954376239E0,7.182605099E-3,8.140286058E-2,9.828198433E0,9.828538165E0
2.956359849E0,4.788403399E-3,8.379705995E-2,9.828198433E0,9.828556828E0
2.958153652E0,1.436521020E-2,9.337386489E-2,9.847352028E0,9.847805187E0
2.960357587E0,2.633621916E-2,8.858546615E-2,9.830592155E0,9.831026554E0
2.962246113E0,2.394201607E-2,7.900865376E-2,9.828198433E0,9.828545163E0
2.964355326E0,2.873042040E-2,7.182604820E-2,9.825803757E0,9.826108278E0
2.966114383E0,1.675941236E-2,7.182604820E-2,9.816226959E0,9.816504040E0
2.968322546E0,2.633621916E-2,7.422025502E-2,9.825803757E0,9.826119362E0
2.970111960E0,2.394201607E-2,9.097966552E-2,9.823410034E0,9.823860505E0
2.972320283E0,1.436521020E-2,9.337386489E-2,9.821015358E0,9.821469732E0
2.974119883E0,1.197100803E-2,9.337386489E-2,9.823410034E0,9.823861088E0
2.976318022E0,2.154781483E-2,8.858546615E-2,9.828198433E0,9.828621273E0
2.978071883E0,2.154781483E-2,9.337386489E-2,9.835380554E0,9.835847377E0
2.980285242E0,1.675941236E-2,9.576806426E-2,9.821015358E0,9.821496580E0
2.982184613E0,2.154781483E-2,9.337386489E-2,9.828198433E0,9.828665597E0
2.984282980E0,3.112462163E-2,8.379705995E-2,9.830592155E0,9.830998567E0
2.986130998E0,9.576806799E-3,8.858546615E-2,9.823410034E0,9.823814117E0
2.988280719E0,1.436521020E-2,9.097966552E-2,9.818621635E0,9.819053645E0
2.990059575E0,7.182605099E-3,9.816227108E-2,9.821015358E0,9.821508544E0
2.992247939E0,1.197100803E-2,9.816227108E-2,9.813833237E0,9.814331456E0
2.994039806E0,1.915361360E-2,1.053448766E-1,9.813833237E0,9.814417313E0
2.996245677E0,1.436521020E-2,1.029506698E-1,9.816226959E0,9.816777318E0
2.998032383E0,1.915361360E-2,8.379705995E-2,9.806650162E0,9.807026879E0
3.000243415E0,2.394201607E-2,6.224924326E-2,9.816226959E0,9.816453530E0
3.002223767E0,2.394201607E-2,6.703764945E-2,9.823410034E0,9.823667949E0
3.004241153E0,2.394201607E-2,7.661445439E-2,9.835380554E0,9.835708090E0
3.006046152E0,2.154781483E-2,7.182604820E-2,9.818621635E0,9.818907990E0
3.008208373E0,1.436521020E-2,6.464344263E-2,9.828198433E0,9.828421520E0
3.010046113E0,3.351882473E-2,6.464344263E-2,9.828198433E0,9.828468178E0
3.012206112E0,2.633621916E-2,6.464344263E-2,9.818621635E0,9.818869751E0
3.013974306E0,2.394201607E-2,7.661445439E-2,9.832986832E0,9.833314448E0
3.016203850E0,2.394201607E-2,8.619125932E-2,9.830592155E0,9.830999150E0
3.017971536E0,1.436521020E-2,7.900865376E-2,9.830592155E0,9.830920143E0
3.020171071E0,1.675941236E-2,8.619125932E-2,9.813833237E0,9.814226032E0
3.022065498E0,1.436521020E-2,8.619125932E-2,9.821015358E0,9.821404072E0
3.024168809E0,3.351882473E-2,7.661445439E-2,9.830592155E0,9.830947839E0
3.025995459E0,3.591302410E-2,8.619125932E-2,9.830592155E0,9.831035592E0
3.028166546E0,2.633621916E-2,7.900865376E-2,9.835380554E0,9.835733151E0
3.029959383E0,4.070143029E-2,8.379705995E-2,9.837775230E0,9.838216304E0
3.032133768E0,3.830722719E-2,1.029506698E-1,9.837775230E0,9.838388474E0
3.033933383E0,3.351882473E-2,1.005564705E-1,9.844957352E0,9.845527938E0
3.036131505E0,2.873042040E-2,9.097966552E-2,9.842563629E0,9.843026035E0
3.037926690E0,3.351882473E-2,1.101332754E-1,9.835380554E0,9.836054265E0
3.040129243E0,3.591302410E-2,1.149216816E-1,9.832986832E0,9.833723952E0
3.042112854E0,2.154781483E-2,1.077390760E-1,9.825803757E0,9.826418039E0
3.044096464E0,9.576806799E-3,1.005564705E-1,9.821015358E0,9.821534808E0
3.045950229E0,2.873042040E-2,1.149216816E-1,9.818621635E0,9.819336192E0
3.048094202E0,3.112462163E-2,1.173158810E-1,9.813833237E0,9.814583769E0
3.050041690E0,4.788403213E-2,7.661445439E-2,9.842563629E0,9.842978281E0
3.052091940E0,4.309562966E-2,8.140286058E-2,9.844957352E0,9.845388205E0
3.053983152E0,4.070143029E-2,1.268926859E-1,9.837775230E0,9.838677749E0
3.056059161E0,2.394201607E-2,1.604115069E-1,9.835380554E0,9.836717731E0
3.057855383E0,1.675941236E-2,1.532289088E-1,9.828198433E0,9.829407124E0
3.060056899E0,2.154781483E-2,1.005564705E-1,9.797073364E0,9.797613098E0
3.061938575E0,2.154781483E-2,9.097966552E-2,9.789890289E0,9.790336740E0
3.064054636E0,4.788403399E-3,7.422025502E-2,9.797073364E0,9.797355668E0
3.065821344E0,1.436521020E-2,5.746084079E-2,9.830592155E0,9.830770582E0
3.068021857E0,2.394201607E-2,5.985504389E-2,9.840168953E0,9.840380118E0
3.069951690E0,0.000000000E0,6.943184882E-2,9.849745750E0,9.849990463E0
3.072019595E0,1.197100803E-2,6.703764945E-2,9.835380554E0,9.835616300E0
3.073807575E0,1.915361360E-2,6.464344263E-2,9.816226959E0,9.816458493E0
3.076017333E0,2.154781483E-2,7.422025502E-2,9.794678688E0,9.794983591E0
3.077792075E0,7.182605099E-3,7.900865376E-2,9.823410034E0,9.823730384E0
3.080015071E0,2.394201700E-3,8.379705995E-2,9.816226959E0,9.816584915E0
3.081885806E0,1.675941236E-2,7.422025502E-2,9.809044838E0,9.809339945E0
3.083982292E0,2.394201607E-2,7.900865376E-2,9.785101891E0,9.785450148E0
3.085774421E0,1.675941236E-2,5.985504389E-2,9.811438560E0,9.811635446E0
3.087980030E0,1.675941236E-2,4.309562966E-2,9.825803757E0,9.825912557E0
3.089791459E0,0.000000000E0,5.506663769E-2,9.847352028E0,9.847505994E0
3.091977767E0,9.576806799E-3,5.985504389E-2,9.837775230E0,9.837961975E0
3.093776921E0,2.154781483E-2,6.943184882E-2,9.818621635E0,9.818890768E0
3.095944988E0,2.873042040E-2,7.422025502E-2,9.821015358E0,9.821337829E0
3.097737459E0,2.394201607E-2,7.422025502E-2,9.830592155E0,9.830901484E0
3.099942726E0,1.675941236E-2,9.337386489E-2,9.828198433E0,9.828656266E0
3.101838921E0,1.197100803E-2,9.097966552E-2,9.818621635E0,9.819050434E0
3.103940464E0,9.576806799E-3,8.619125932E-2,9.823410034E0,9.823792819E0
3.105691921E0,1.915361360E-2,8.140286058E-2,9.818621635E0,9.818977753E0
3.107907685E0,1.675941236E-2,9.337386489E-2,9.816226959E0,9.816685351E0
3.109719767E0,1.915361360E-2,9.337386489E-2,9.813833237E0,9.814296120E0
3.111905423E0,3.830722719E-2,9.576806426E-2,9.852140427E0,9.852680344E0
3.113687806E0,4.548983276E-2,1.005564705E-1,9.861717224E0,9.862334791E0
3.115903161E0,5.027823523E-2,8.379705995E-2,9.844957352E0,9.845442352E0
3.117745806E0,3.591302410E-2,1.077390760E-1,9.809044838E0,9.809702243E0
3.119870382E0,3.591302410E-2,1.221042871E-1,9.799467087E0,9.800293587E0
3.121872459E0,3.351882473E-2,1.221042871E-1,9.801861763E0,9.802679582E0
3.123868119E0,4.788403213E-2,1.197100878E-1,9.847352028E0,9.848196045E0
3.125737652E0,4.070143029E-2,1.029506698E-1,9.861717224E0,9.862338569E0
3.127865857E0,2.873042040E-2,1.053448766E-1,9.844957352E0,9.845562870E0
3.129664652E0,2.633621916E-2,1.029506698E-1,9.794678688E0,9.795255129E0
3.131833078E0,2.394201607E-2,9.337386489E-2,9.806650162E0,9.807123905E0
3.133618306E0,3.830722719E-2,1.029506698E-1,9.828198433E0,9.828812274E0
3.135830816E0,4.788403213E-2,1.125274822E-1,9.852140427E0,9.852899386E0
3.137613152E0,2.394201607E-2,1.125274822E-1,9.861717224E0,9.862388264E0
3.139828554E0,2.633621916E-2,1.101332754E-1,9.856928825E0,9.857579257E0
3.141812164E0,2.394201607E-2,1.077390760E-1,9.825803757E0,9.826423581E0
3.143826292E0,9.576806799E-3,1.149216816E-1,9.825803757E0,9.826480457E0
3.145639998E0,9.576806799E-3,9.816227108E-2,9.832986832E0,9.833481458E0
3.147793513E0,1.197100803E-2,9.337386489E-2,9.832986832E0,9.833437447E0
3.149807640E0,2.633621916E-2,1.005564705E-1,9.844957352E0,9.845506105E0
3.151791250E0,2.394201607E-2,1.101332754E-1,9.830592155E0,9.831238207E0
3.153770729E0,2.873042040E-2,9.576806426E-2,9.830592155E0,9.831100604E0
3.155788988E0,3.830722719E-2,7.900865376E-2,9.830592155E0,9.830984281E0
3.157559229E0,1.436521020E-2,6.703764945E-2,9.828198433E0,9.828437559E0
3.159756209E0,0.000000000E0,8.379705995E-2,9.828198433E0,9.828555661E0
3.161751382E0,2.394201700E-3,7.661445439E-2,9.828198433E0,9.828497339E0
3.163753947E0,7.182605099E-3,8.379705995E-2,9.806650162E0,9.807010805E0
3.165600921E0,1.197100803E-2,8.619125932E-2,9.806650162E0,9.807036231E0
3.167751685E0,1.675941236E-2,7.661445439E-2,9.804255486E0,9.804569153E0
3.169506959E0,9.576806799E-3,8.619125932E-2,9.830592155E0,9.830974660E0
3.171718906E0,1.915361360E-2,8.140286058E-2,9.825803757E0,9.826159614E0
3.173542921E0,1.436521020E-2,7.661445439E-2,9.816226959E0,9.816536449E0
3.175716644E0,1.436521020E-2,6.224924326E-2,9.811438560E0,9.811646547E0
3.177501498E0,2.873042040E-2,5.985504389E-2,9.799467087E0,9.799691998E0
3.179714381E0,2.873042040E-2,6.703764945E-2,9.797073364E0,9.797344844E0
3.181586652E0,2.873042040E-2,8.619125932E-2,9.797073364E0,9.797494622E0
3.183681603E0,1.675941236E-2,6.943184882E-2,9.823410034E0,9.823669699E0
3.185518959E0,1.675941236E-2,7.900865376E-2,9.825803757E0,9.826135696E0
3.187679340E0,1.675941236E-2,8.140286058E-2,9.813833237E0,9.814185147E0
3.189460344E0,2.873042040E-2,7.900865376E-2,9.797073364E0,9.797434068E0
3.191677078E0,2.873042040E-2,9.097966552E-2,9.799467087E0,9.799931526E0
3.193469613E0,3.112462163E-2,8.619125932E-2,9.821015358E0,9.821442885E0
3.195644299E0,1.915361360E-2,8.619125932E-2,9.818621635E0,9.819018618E0
3.197448767E0,3.351882473E-2,7.661445439E-2,9.789890289E0,9.790247452E0
3.199642037E0,5.027823523E-2,8.140286058E-2,9.789890289E0,9.790357818E0
3.201530844E0,3.830722719E-2,8.858546615E-2,9.813833237E0,9.814307802E0
3.203639775E0,3.112462163E-2,7.182604820E-2,9.821015358E0,9.821327323E0
3.205410267E0,3.591302410E-2,7.182604820E-2,9.828198433E0,9.828526500E0
3.207606996E0,3.351882473E-2,7.422025502E-2,9.832986832E0,9.833324066E0
3.209448306E0,4.548983276E-2,6.703764945E-2,9.842563629E0,9.842897041E0
3.211604734E0,4.309562966E-2,6.224924326E-2,9.844957352E0,9.845248471E0
3.213588344E0,3.112462163E-2,7.661445439E-2,9.837775230E0,9.838122788E0
3.215602471E0,4.070143029E-2,7.900865376E-2,9.832986832E0,9.833388480E0
3.217438536E0,4.788403213E-2,6.464344263E-2,9.828198433E0,9.828527667E0
3.219569692E0,4.070143029E-2,6.224924326E-2,9.821015358E0,9.821296973E0
3.221480421E0,2.154781483E-2,7.422025502E-2,9.818621635E0,9.818925795E0
3.223567430E0,2.154781483E-2,6.943184882E-2,9.828198433E0,9.828467303E0
3.225405882E0,3.112462163E-2,6.943184882E-2,9.837775230E0,9.838069476E0
3.227534651E0,2.633621916E-2,7.182604820E-2,9.832986832E0,9.833284426E0
3.229323575E0,2.633621916E-2,8.140286058E-2,9.825803757E0,9.826176239E0
3.231532389E0,2.633621916E-2,9.337386489E-2,9.825803757E0,9.826282702E0
3.233306575E0,3.591302410E-2,1.005564705E-1,9.847352028E0,9.847930915E0
3.235530127E0,2.394201607E-2,8.858546615E-2,9.842563629E0,9.842991385E0
3.237300075E0,2.394201607E-2,7.900865376E-2,9.840168953E0,9.840515261E0
3.239497348E0,3.830722719E-2,9.816227108E-2,9.842563629E0,9.843127657E0
3.241374613E0,2.394201607E-2,8.858546615E-2,9.828198433E0,9.828626814E0
3.243495086E0,1.915361360E-2,8.858546615E-2,9.813833237E0,9.814251731E0
3.245257844E0,3.112462163E-2,9.097966552E-2,9.816226959E0,9.816697905E0
3.247492823E0,3.830722719E-2,1.101332754E-1,9.823410034E0,9.824102070E0
3.249376152E0,1.197100803E-2,9.816227108E-2,9.823410034E0,9.823907768E0
3.251460045E0,7.182605099E-3,8.858546615E-2,9.821015358E0,9.821417496E0
3.253249498E0,1.675941236E-2,1.029506698E-1,9.813833237E0,9.814387526E0
3.255457782E0,1.197100803E-2,1.125274822E-1,9.823410034E0,9.824061810E0
3.257237113E0,1.915361360E-2,1.149216816E-1,9.825803757E0,9.826494457E0
3.259455520E0,2.394201607E-2,1.364694983E-1,9.816226959E0,9.817204738E0
3.261327575E0,1.915361360E-2,1.316810995E-1,9.818621635E0,9.819523287E0
3.263422741E0,1.197100803E-2,9.816227108E-2,9.821015358E0,9.821513213E0
3.265312959E0,1.436521020E-2,1.005564705E-1,9.825803757E0,9.826328787E0
3.267420479E0,3.112462163E-2,1.005564705E-1,9.806650162E0,9.807215086E0
3.269196690E0,4.309562966E-2,8.140286058E-2,9.813833237E0,9.814265457E0
3.271418217E0,5.027823523E-2,7.661445439E-2,9.818621635E0,9.819049266E0
3.273177113E0,3.351882473E-2,8.619125932E-2,9.825803757E0,9.826238950E0
3.275385438E0,3.112462163E-2,8.379705995E-2,9.842563629E0,9.842969546E0
3.277177805E0,1.436521020E-2,6.943184882E-2,9.840168953E0,9.840424389E0
3.279383176E0,3.112462163E-2,5.985504389E-2,9.823410034E0,9.823641691E0
3.281291652E0,3.112462163E-2,6.943184882E-2,9.828198433E0,9.828492965E0
3.283380913E0,3.351882473E-2,6.703764945E-2,9.825803757E0,9.826089610E0
3.285143498E0,2.873042040E-2,5.746084079E-2,9.828198433E0,9.828408397E0
3.287348134E0,2.154781483E-2,5.746084079E-2,9.830592155E0,9.830783701E0
3.289144152E0,1.675941236E-2,6.943184882E-2,9.828198433E0,9.828457971E0
3.291345872E0,2.154781483E-2,6.943184882E-2,9.832986832E0,9.833255571E0
3.293120882E0,1.436521020E-2,5.985504389E-2,9.840168953E0,9.840361478E0
3.295343610E0,1.436521020E-2,5.985504389E-2,9.847352028E0,9.847544412E0
3.297157613E0,1.436521020E-2,5.985504389E-2,9.840168953E0,9.840361478E0
3.299310831E0,2.154781483E-2,6.943184882E-2,9.830592155E0,9.830860960E0
3.301215921E0,3.351882473E-2,6.703764945E-2,9.823410034E0,9.823695957E0
3.303308569E0,2.873042040E-2,6.703764945E-2,9.825803757E0,9.826074442E0
3.305105152E0,1.915361360E-2,7.661445439E-2,9.832986832E0,9.833303955E0
3.307306307E0,1.436521020E-2,8.140286058E-2,9.847352028E0,9.847698957E0
3.309076767E0,1.197100803E-2,5.506663769E-2,9.842563629E0,9.842724950E0
3.311273528E0,1.675941236E-2,6.703764945E-2,9.830592155E0,9.830835013E0
3.313042921E0,2.633621916E-2,7.182604820E-2,9.828198433E0,9.828496173E0
